USUBJID,TRT01P,AVISIT,AVISITN,PARAMCD,AVAL,BASE,CHG,PCHG,BMICAT,RESP5FL,RESP10FL
SYN-001,ARM A,Week 26,26,WEIGHT,95,100,-5,-5,Overweight,Y,N
SYN-001,ARM A,Week 4,4,WEIGHT,98,100,-2,-2,Overweight,Y,N
SYN-001,ARM A,Week 26,26,BMI,32,34,-2,-5.9,Obese,Y,N
SYN-002,ARM A,Week 26,26,WEIGHT,90,100,-10,-10,Overweight,Y,Y
SYN-003,ARM A,Week 26,26,WEIGHT,95.1,100,-4.9,-4.9,Overweight,N,N
SYN-004,ARM B,Week 26,26,WEIGHT,95,100,-5,-5,Overweight,Y,N
SYN-005,ARM B,Week 26,26,WEIGHT,88,100,-12,-12,Obese,Y,Y
SYN-006,ARM C,Week 26,26,WEIGHT,97,100,-3,-3,Overweight,N,N
SYN-007,ARM C,Week 26,26,WEIGHT,92.5,100,-7.5,-7.5,Obese,Y,N
SYN-009,ARM A,Week 16,16,WEIGHT,60,100,-40,-40,Obese,Y,Y
