"STUDYID","USUBJID","PARAMCD","PARAM","AVISIT","AVISITN","AVAL"
"SYNTH-OBT2D-26","SYNTH-001","HBA1C","HbA1c (%)","Baseline",0,7.6
"SYNTH-OBT2D-26","SYNTH-001","HBA1C","HbA1c (%)","Week 4",4,7.4
"SYNTH-OBT2D-26","SYNTH-001","HBA1C","HbA1c (%)","Week 8",8,7.1
"SYNTH-OBT2D-26","SYNTH-001","HBA1C","HbA1c (%)","Week 12",12,7
"SYNTH-OBT2D-26","SYNTH-001","HBA1C","HbA1c (%)","Week 16",16,6.8
"SYNTH-OBT2D-26","SYNTH-001","HBA1C","HbA1c (%)","Week 20",20,6.8
"SYNTH-OBT2D-26","SYNTH-001","HBA1C","HbA1c (%)","Week 26",26,6.7
"SYNTH-OBT2D-26","SYNTH-001","HEIGHT","Height (cm)","Baseline",0,174
"SYNTH-OBT2D-26","SYNTH-001","WEIGHT","Weight (kg)","Baseline",0,94.2
"SYNTH-OBT2D-26","SYNTH-001","WEIGHT","Weight (kg)","Week 4",4,92.4
"SYNTH-OBT2D-26","SYNTH-001","WEIGHT","Weight (kg)","Week 8",8,91.6
"SYNTH-OBT2D-26","SYNTH-001","WEIGHT","Weight (kg)","Week 12",12,90.6
"SYNTH-OBT2D-26","SYNTH-001","WEIGHT","Weight (kg)","Week 16",16,90.8
"SYNTH-OBT2D-26","SYNTH-001","WEIGHT","Weight (kg)","Week 20",20,89.8
"SYNTH-OBT2D-26","SYNTH-001","WEIGHT","Weight (kg)","Week 26",26,89.5
"SYNTH-OBT2D-26","SYNTH-002","HBA1C","HbA1c (%)","Baseline",0,7.9
"SYNTH-OBT2D-26","SYNTH-002","HBA1C","HbA1c (%)","Week 4",4,7.6
"SYNTH-OBT2D-26","SYNTH-002","HBA1C","HbA1c (%)","Week 8",8,7.6
"SYNTH-OBT2D-26","SYNTH-002","HBA1C","HbA1c (%)","Week 12",12,7.4
"SYNTH-OBT2D-26","SYNTH-002","HBA1C","HbA1c (%)","Week 16",16,7.3
"SYNTH-OBT2D-26","SYNTH-002","HBA1C","HbA1c (%)","Week 20",20,7.2
"SYNTH-OBT2D-26","SYNTH-002","HBA1C","HbA1c (%)","Week 26",26,7.3
"SYNTH-OBT2D-26","SYNTH-002","HEIGHT","Height (cm)","Baseline",0,168
"SYNTH-OBT2D-26","SYNTH-002","WEIGHT","Weight (kg)","Baseline",0,96.2
"SYNTH-OBT2D-26","SYNTH-002","WEIGHT","Weight (kg)","Week 4",4,94.7
"SYNTH-OBT2D-26","SYNTH-002","WEIGHT","Weight (kg)","Week 8",8,93.2
"SYNTH-OBT2D-26","SYNTH-002","WEIGHT","Weight (kg)","Week 12",12,92.7
"SYNTH-OBT2D-26","SYNTH-002","WEIGHT","Weight (kg)","Week 16",16,91.9
"SYNTH-OBT2D-26","SYNTH-002","WEIGHT","Weight (kg)","Week 20",20,91.2
"SYNTH-OBT2D-26","SYNTH-002","WEIGHT","Weight (kg)","Week 26",26,91.4
"SYNTH-OBT2D-26","SYNTH-003","HBA1C","HbA1c (%)","Baseline",0,8.5
"SYNTH-OBT2D-26","SYNTH-003","HBA1C","HbA1c (%)","Week 4",4,8.2
"SYNTH-OBT2D-26","SYNTH-003","HBA1C","HbA1c (%)","Week 8",8,8.4
"SYNTH-OBT2D-26","SYNTH-003","HBA1C","HbA1c (%)","Week 12",12,8.1
"SYNTH-OBT2D-26","SYNTH-003","HBA1C","HbA1c (%)","Week 16",16,8.2
"SYNTH-OBT2D-26","SYNTH-003","HBA1C","HbA1c (%)","Week 20",20,8.1
"SYNTH-OBT2D-26","SYNTH-003","HBA1C","HbA1c (%)","Week 26",26,8.1
"SYNTH-OBT2D-26","SYNTH-003","HEIGHT","Height (cm)","Baseline",0,158
"SYNTH-OBT2D-26","SYNTH-003","WEIGHT","Weight (kg)","Baseline",0,85.2
"SYNTH-OBT2D-26","SYNTH-003","WEIGHT","Weight (kg)","Week 4",4,83.8
"SYNTH-OBT2D-26","SYNTH-003","WEIGHT","Weight (kg)","Week 8",8,82.8
"SYNTH-OBT2D-26","SYNTH-003","WEIGHT","Weight (kg)","Week 12",12,82.3
"SYNTH-OBT2D-26","SYNTH-003","WEIGHT","Weight (kg)","Week 16",16,81.6
"SYNTH-OBT2D-26","SYNTH-003","WEIGHT","Weight (kg)","Week 20",20,81.4
"SYNTH-OBT2D-26","SYNTH-003","WEIGHT","Weight (kg)","Week 26",26,80.9
"SYNTH-OBT2D-26","SYNTH-004","HBA1C","HbA1c (%)","Baseline",0,8.4
"SYNTH-OBT2D-26","SYNTH-004","HBA1C","HbA1c (%)","Week 4",4,8.2
"SYNTH-OBT2D-26","SYNTH-004","HBA1C","HbA1c (%)","Week 8",8,8
"SYNTH-OBT2D-26","SYNTH-004","HBA1C","HbA1c (%)","Week 12",12,8
"SYNTH-OBT2D-26","SYNTH-004","HBA1C","HbA1c (%)","Week 16",16,8
"SYNTH-OBT2D-26","SYNTH-004","HBA1C","HbA1c (%)","Week 20",20,8
"SYNTH-OBT2D-26","SYNTH-004","HBA1C","HbA1c (%)","Week 26",26,7.9
"SYNTH-OBT2D-26","SYNTH-004","HEIGHT","Height (cm)","Baseline",0,175
"SYNTH-OBT2D-26","SYNTH-004","WEIGHT","Weight (kg)","Baseline",0,105.4
"SYNTH-OBT2D-26","SYNTH-004","WEIGHT","Weight (kg)","Week 4",4,103.8
"SYNTH-OBT2D-26","SYNTH-004","WEIGHT","Weight (kg)","Week 8",8,102.6
"SYNTH-OBT2D-26","SYNTH-004","WEIGHT","Weight (kg)","Week 12",12,101.7
"SYNTH-OBT2D-26","SYNTH-004","WEIGHT","Weight (kg)","Week 16",16,101.2
"SYNTH-OBT2D-26","SYNTH-004","WEIGHT","Weight (kg)","Week 20",20,100.8
"SYNTH-OBT2D-26","SYNTH-004","WEIGHT","Weight (kg)","Week 26",26,100.1
"SYNTH-OBT2D-26","SYNTH-005","HBA1C","HbA1c (%)","Baseline",0,9.5
"SYNTH-OBT2D-26","SYNTH-005","HBA1C","HbA1c (%)","Week 4",4,9.3
"SYNTH-OBT2D-26","SYNTH-005","HBA1C","HbA1c (%)","Week 8",8,9.2
"SYNTH-OBT2D-26","SYNTH-005","HBA1C","HbA1c (%)","Week 12",12,9
"SYNTH-OBT2D-26","SYNTH-005","HBA1C","HbA1c (%)","Week 16",16,9.1
"SYNTH-OBT2D-26","SYNTH-005","HBA1C","HbA1c (%)","Week 20",20,9
"SYNTH-OBT2D-26","SYNTH-005","HBA1C","HbA1c (%)","Week 26",26,8.9
"SYNTH-OBT2D-26","SYNTH-005","HEIGHT","Height (cm)","Baseline",0,174
"SYNTH-OBT2D-26","SYNTH-005","WEIGHT","Weight (kg)","Baseline",0,103.3
"SYNTH-OBT2D-26","SYNTH-005","WEIGHT","Weight (kg)","Week 4",4,101.4
"SYNTH-OBT2D-26","SYNTH-005","WEIGHT","Weight (kg)","Week 8",8,100.4
"SYNTH-OBT2D-26","SYNTH-005","WEIGHT","Weight (kg)","Week 12",12,99.8
"SYNTH-OBT2D-26","SYNTH-005","WEIGHT","Weight (kg)","Week 16",16,98.9
"SYNTH-OBT2D-26","SYNTH-005","WEIGHT","Weight (kg)","Week 20",20,98.2
"SYNTH-OBT2D-26","SYNTH-005","WEIGHT","Weight (kg)","Week 26",26,98.1
"SYNTH-OBT2D-26","SYNTH-006","HBA1C","HbA1c (%)","Baseline",0,8.8
"SYNTH-OBT2D-26","SYNTH-006","HBA1C","HbA1c (%)","Week 4",4,8.5
"SYNTH-OBT2D-26","SYNTH-006","HBA1C","HbA1c (%)","Week 8",8,8.2
"SYNTH-OBT2D-26","SYNTH-006","HBA1C","HbA1c (%)","Week 12",12,8.1
"SYNTH-OBT2D-26","SYNTH-006","HBA1C","HbA1c (%)","Week 16",16,8
"SYNTH-OBT2D-26","SYNTH-006","HBA1C","HbA1c (%)","Week 20",20,7.9
"SYNTH-OBT2D-26","SYNTH-006","HBA1C","HbA1c (%)","Week 26",26,7.8
"SYNTH-OBT2D-26","SYNTH-006","HEIGHT","Height (cm)","Baseline",0,161
"SYNTH-OBT2D-26","SYNTH-006","WEIGHT","Weight (kg)","Baseline",0,99.4
"SYNTH-OBT2D-26","SYNTH-006","WEIGHT","Weight (kg)","Week 4",4,95.7
"SYNTH-OBT2D-26","SYNTH-006","WEIGHT","Weight (kg)","Week 8",8,93.8
"SYNTH-OBT2D-26","SYNTH-006","WEIGHT","Weight (kg)","Week 12",12,92.4
"SYNTH-OBT2D-26","SYNTH-006","WEIGHT","Weight (kg)","Week 16",16,90.8
"SYNTH-OBT2D-26","SYNTH-006","WEIGHT","Weight (kg)","Week 20",20,90.3
"SYNTH-OBT2D-26","SYNTH-006","WEIGHT","Weight (kg)","Week 26",26,89.5
"SYNTH-OBT2D-26","SYNTH-007","HBA1C","HbA1c (%)","Baseline",0,7.2
"SYNTH-OBT2D-26","SYNTH-007","HBA1C","HbA1c (%)","Week 4",4,7
"SYNTH-OBT2D-26","SYNTH-007","HBA1C","HbA1c (%)","Week 8",8,6.9
"SYNTH-OBT2D-26","SYNTH-007","HBA1C","HbA1c (%)","Week 12",12,6.8
"SYNTH-OBT2D-26","SYNTH-007","HBA1C","HbA1c (%)","Week 16",16,6.8
"SYNTH-OBT2D-26","SYNTH-007","HBA1C","HbA1c (%)","Week 20",20,6.8
"SYNTH-OBT2D-26","SYNTH-007","HBA1C","HbA1c (%)","Week 26",26,6.7
"SYNTH-OBT2D-26","SYNTH-007","HEIGHT","Height (cm)","Baseline",0,177
"SYNTH-OBT2D-26","SYNTH-007","WEIGHT","Weight (kg)","Baseline",0,100.5
"SYNTH-OBT2D-26","SYNTH-007","WEIGHT","Weight (kg)","Week 4",4,98.8
"SYNTH-OBT2D-26","SYNTH-007","WEIGHT","Weight (kg)","Week 8",8,97.4
"SYNTH-OBT2D-26","SYNTH-007","WEIGHT","Weight (kg)","Week 12",12,96.7
"SYNTH-OBT2D-26","SYNTH-007","WEIGHT","Weight (kg)","Week 16",16,96.1
"SYNTH-OBT2D-26","SYNTH-007","WEIGHT","Weight (kg)","Week 20",20,96.1
"SYNTH-OBT2D-26","SYNTH-007","WEIGHT","Weight (kg)","Week 26",26,95.5
"SYNTH-OBT2D-26","SYNTH-008","HBA1C","HbA1c (%)","Baseline",0,7.7
"SYNTH-OBT2D-26","SYNTH-008","HBA1C","HbA1c (%)","Week 4",4,7.4
"SYNTH-OBT2D-26","SYNTH-008","HBA1C","HbA1c (%)","Week 8",8,7.1
"SYNTH-OBT2D-26","SYNTH-008","HBA1C","HbA1c (%)","Week 12",12,6.8
"SYNTH-OBT2D-26","SYNTH-008","HBA1C","HbA1c (%)","Week 16",16,6.8
"SYNTH-OBT2D-26","SYNTH-008","HBA1C","HbA1c (%)","Week 20",20,6.8
"SYNTH-OBT2D-26","SYNTH-008","HBA1C","HbA1c (%)","Week 26",26,6.6
"SYNTH-OBT2D-26","SYNTH-008","HEIGHT","Height (cm)","Baseline",0,161
"SYNTH-OBT2D-26","SYNTH-008","WEIGHT","Weight (kg)","Baseline",0,86.7
"SYNTH-OBT2D-26","SYNTH-008","WEIGHT","Weight (kg)","Week 4",4,83.9
"SYNTH-OBT2D-26","SYNTH-008","WEIGHT","Weight (kg)","Week 8",8,82.1
"SYNTH-OBT2D-26","SYNTH-008","WEIGHT","Weight (kg)","Week 12",12,80.4
"SYNTH-OBT2D-26","SYNTH-008","WEIGHT","Weight (kg)","Week 16",16,79.5
"SYNTH-OBT2D-26","SYNTH-008","WEIGHT","Weight (kg)","Week 20",20,79
"SYNTH-OBT2D-26","SYNTH-008","WEIGHT","Weight (kg)","Week 26",26,78
"SYNTH-OBT2D-26","SYNTH-009","HBA1C","HbA1c (%)","Baseline",0,9
"SYNTH-OBT2D-26","SYNTH-009","HBA1C","HbA1c (%)","Week 4",4,9
"SYNTH-OBT2D-26","SYNTH-009","HBA1C","HbA1c (%)","Week 8",8,8.9
"SYNTH-OBT2D-26","SYNTH-009","HBA1C","HbA1c (%)","Week 12",12,9
"SYNTH-OBT2D-26","SYNTH-009","HBA1C","HbA1c (%)","Week 16",16,8.8
"SYNTH-OBT2D-26","SYNTH-009","HBA1C","HbA1c (%)","Week 20",20,8.8
"SYNTH-OBT2D-26","SYNTH-009","HBA1C","HbA1c (%)","Week 26",26,8.8
"SYNTH-OBT2D-26","SYNTH-009","HEIGHT","Height (cm)","Baseline",0,170
"SYNTH-OBT2D-26","SYNTH-009","WEIGHT","Weight (kg)","Baseline",0,88.5
"SYNTH-OBT2D-26","SYNTH-009","WEIGHT","Weight (kg)","Week 4",4,87.2
"SYNTH-OBT2D-26","SYNTH-009","WEIGHT","Weight (kg)","Week 8",8,86.3
"SYNTH-OBT2D-26","SYNTH-009","WEIGHT","Weight (kg)","Week 12",12,85.3
"SYNTH-OBT2D-26","SYNTH-009","WEIGHT","Weight (kg)","Week 16",16,84.8
"SYNTH-OBT2D-26","SYNTH-009","WEIGHT","Weight (kg)","Week 20",20,84.6
"SYNTH-OBT2D-26","SYNTH-009","WEIGHT","Weight (kg)","Week 26",26,84.1
"SYNTH-OBT2D-26","SYNTH-010","HBA1C","HbA1c (%)","Baseline",0,9.1
"SYNTH-OBT2D-26","SYNTH-010","HBA1C","HbA1c (%)","Week 4",4,8.9
"SYNTH-OBT2D-26","SYNTH-010","HBA1C","HbA1c (%)","Week 8",8,8.8
"SYNTH-OBT2D-26","SYNTH-010","HBA1C","HbA1c (%)","Week 12",12,8.7
"SYNTH-OBT2D-26","SYNTH-010","HBA1C","HbA1c (%)","Week 16",16,8.6
"SYNTH-OBT2D-26","SYNTH-010","HBA1C","HbA1c (%)","Week 20",20,8.5
"SYNTH-OBT2D-26","SYNTH-010","HBA1C","HbA1c (%)","Week 26",26,8.5
"SYNTH-OBT2D-26","SYNTH-010","HEIGHT","Height (cm)","Baseline",0,169
"SYNTH-OBT2D-26","SYNTH-010","WEIGHT","Weight (kg)","Baseline",0,94.2
"SYNTH-OBT2D-26","SYNTH-010","WEIGHT","Weight (kg)","Week 4",4,92.9
"SYNTH-OBT2D-26","SYNTH-010","WEIGHT","Weight (kg)","Week 8",8,91.2
"SYNTH-OBT2D-26","SYNTH-010","WEIGHT","Weight (kg)","Week 12",12,90
"SYNTH-OBT2D-26","SYNTH-010","WEIGHT","Weight (kg)","Week 16",16,90
"SYNTH-OBT2D-26","SYNTH-010","WEIGHT","Weight (kg)","Week 20",20,89.6
"SYNTH-OBT2D-26","SYNTH-010","WEIGHT","Weight (kg)","Week 26",26,88.9
"SYNTH-OBT2D-26","SYNTH-011","HBA1C","HbA1c (%)","Baseline",0,8.3
"SYNTH-OBT2D-26","SYNTH-011","HBA1C","HbA1c (%)","Week 4",4,8.1
"SYNTH-OBT2D-26","SYNTH-011","HBA1C","HbA1c (%)","Week 8",8,8.1
"SYNTH-OBT2D-26","SYNTH-011","HBA1C","HbA1c (%)","Week 12",12,7.9
"SYNTH-OBT2D-26","SYNTH-011","HBA1C","HbA1c (%)","Week 16",16,7.9
"SYNTH-OBT2D-26","SYNTH-011","HBA1C","HbA1c (%)","Week 20",20,7.8
"SYNTH-OBT2D-26","SYNTH-011","HBA1C","HbA1c (%)","Week 26",26,7.8
"SYNTH-OBT2D-26","SYNTH-011","HEIGHT","Height (cm)","Baseline",0,177
"SYNTH-OBT2D-26","SYNTH-011","WEIGHT","Weight (kg)","Baseline",0,104.4
"SYNTH-OBT2D-26","SYNTH-011","WEIGHT","Weight (kg)","Week 4",4,102.2
"SYNTH-OBT2D-26","SYNTH-011","WEIGHT","Weight (kg)","Week 8",8,100.3
"SYNTH-OBT2D-26","SYNTH-011","WEIGHT","Weight (kg)","Week 12",12,99.8
"SYNTH-OBT2D-26","SYNTH-011","WEIGHT","Weight (kg)","Week 16",16,98.7
"SYNTH-OBT2D-26","SYNTH-011","WEIGHT","Weight (kg)","Week 20",20,98.1
"SYNTH-OBT2D-26","SYNTH-011","WEIGHT","Weight (kg)","Week 26",26,97.8
"SYNTH-OBT2D-26","SYNTH-012","HBA1C","HbA1c (%)","Baseline",0,8.5
"SYNTH-OBT2D-26","SYNTH-012","HBA1C","HbA1c (%)","Week 4",4,8.2
"SYNTH-OBT2D-26","SYNTH-012","HBA1C","HbA1c (%)","Week 8",8,7.9
"SYNTH-OBT2D-26","SYNTH-012","HBA1C","HbA1c (%)","Week 12",12,7.7
"SYNTH-OBT2D-26","SYNTH-012","HBA1C","HbA1c (%)","Week 16",16,7.7
"SYNTH-OBT2D-26","SYNTH-012","HBA1C","HbA1c (%)","Week 20",20,7.6
"SYNTH-OBT2D-26","SYNTH-012","HBA1C","HbA1c (%)","Week 26",26,7.5
"SYNTH-OBT2D-26","SYNTH-012","HEIGHT","Height (cm)","Baseline",0,181
"SYNTH-OBT2D-26","SYNTH-012","WEIGHT","Weight (kg)","Baseline",0,104.1
"SYNTH-OBT2D-26","SYNTH-012","WEIGHT","Weight (kg)","Week 4",4,100
"SYNTH-OBT2D-26","SYNTH-012","WEIGHT","Weight (kg)","Week 8",8,98
"SYNTH-OBT2D-26","SYNTH-012","WEIGHT","Weight (kg)","Week 12",12,96.5
"SYNTH-OBT2D-26","SYNTH-012","WEIGHT","Weight (kg)","Week 16",16,95.6
"SYNTH-OBT2D-26","SYNTH-012","WEIGHT","Weight (kg)","Week 20",20,94.2
"SYNTH-OBT2D-26","SYNTH-012","WEIGHT","Weight (kg)","Week 26",26,93.6
"SYNTH-OBT2D-26","SYNTH-013","HBA1C","HbA1c (%)","Baseline",0,9.9
"SYNTH-OBT2D-26","SYNTH-013","HBA1C","HbA1c (%)","Week 4",4,9.8
"SYNTH-OBT2D-26","SYNTH-013","HBA1C","HbA1c (%)","Week 8",8,9.6
"SYNTH-OBT2D-26","SYNTH-013","HBA1C","HbA1c (%)","Week 12",12,9.3
"SYNTH-OBT2D-26","SYNTH-013","HBA1C","HbA1c (%)","Week 16",16,9.3
"SYNTH-OBT2D-26","SYNTH-013","HBA1C","HbA1c (%)","Week 20",20,9.4
"SYNTH-OBT2D-26","SYNTH-013","HBA1C","HbA1c (%)","Week 26",26,9.2
"SYNTH-OBT2D-26","SYNTH-013","HEIGHT","Height (cm)","Baseline",0,171
"SYNTH-OBT2D-26","SYNTH-013","WEIGHT","Weight (kg)","Baseline",0,93.2
"SYNTH-OBT2D-26","SYNTH-013","WEIGHT","Weight (kg)","Week 4",4,90.3
"SYNTH-OBT2D-26","SYNTH-013","WEIGHT","Weight (kg)","Week 8",8,89.7
"SYNTH-OBT2D-26","SYNTH-013","WEIGHT","Weight (kg)","Week 12",12,87.3
"SYNTH-OBT2D-26","SYNTH-013","WEIGHT","Weight (kg)","Week 16",16,86.8
"SYNTH-OBT2D-26","SYNTH-013","WEIGHT","Weight (kg)","Week 20",20,86
"SYNTH-OBT2D-26","SYNTH-013","WEIGHT","Weight (kg)","Week 26",26,85.8
"SYNTH-OBT2D-26","SYNTH-014","HBA1C","HbA1c (%)","Baseline",0,8.4
"SYNTH-OBT2D-26","SYNTH-014","HBA1C","HbA1c (%)","Week 4",4,8.3
"SYNTH-OBT2D-26","SYNTH-014","HBA1C","HbA1c (%)","Week 8",8,8
"SYNTH-OBT2D-26","SYNTH-014","HBA1C","HbA1c (%)","Week 12",12,7.9
"SYNTH-OBT2D-26","SYNTH-014","HBA1C","HbA1c (%)","Week 16",16,7.8
"SYNTH-OBT2D-26","SYNTH-014","HBA1C","HbA1c (%)","Week 20",20,7.8
"SYNTH-OBT2D-26","SYNTH-014","HBA1C","HbA1c (%)","Week 26",26,7.7
"SYNTH-OBT2D-26","SYNTH-014","HEIGHT","Height (cm)","Baseline",0,184
"SYNTH-OBT2D-26","SYNTH-014","WEIGHT","Weight (kg)","Baseline",0,94.2
"SYNTH-OBT2D-26","SYNTH-014","WEIGHT","Weight (kg)","Week 4",4,92.9
"SYNTH-OBT2D-26","SYNTH-014","WEIGHT","Weight (kg)","Week 8",8,91.7
"SYNTH-OBT2D-26","SYNTH-014","WEIGHT","Weight (kg)","Week 12",12,91.2
"SYNTH-OBT2D-26","SYNTH-014","WEIGHT","Weight (kg)","Week 16",16,90.5
"SYNTH-OBT2D-26","SYNTH-014","WEIGHT","Weight (kg)","Week 20",20,89.4
"SYNTH-OBT2D-26","SYNTH-014","WEIGHT","Weight (kg)","Week 26",26,89.5
"SYNTH-OBT2D-26","SYNTH-015","HBA1C","HbA1c (%)","Baseline",0,7.4
"SYNTH-OBT2D-26","SYNTH-015","HBA1C","HbA1c (%)","Week 4",4,7.2
"SYNTH-OBT2D-26","SYNTH-015","HBA1C","HbA1c (%)","Week 8",8,7
"SYNTH-OBT2D-26","SYNTH-015","HBA1C","HbA1c (%)","Week 12",12,6.9
"SYNTH-OBT2D-26","SYNTH-015","HBA1C","HbA1c (%)","Week 16",16,6.9
"SYNTH-OBT2D-26","SYNTH-015","HBA1C","HbA1c (%)","Week 20",20,6.8
"SYNTH-OBT2D-26","SYNTH-015","HBA1C","HbA1c (%)","Week 26",26,6.7
"SYNTH-OBT2D-26","SYNTH-015","HEIGHT","Height (cm)","Baseline",0,175
"SYNTH-OBT2D-26","SYNTH-015","WEIGHT","Weight (kg)","Baseline",0,105.1
"SYNTH-OBT2D-26","SYNTH-015","WEIGHT","Weight (kg)","Week 4",4,102.4
"SYNTH-OBT2D-26","SYNTH-015","WEIGHT","Weight (kg)","Week 8",8,99.8
"SYNTH-OBT2D-26","SYNTH-015","WEIGHT","Weight (kg)","Week 12",12,98.2
"SYNTH-OBT2D-26","SYNTH-015","WEIGHT","Weight (kg)","Week 16",16,97.1
"SYNTH-OBT2D-26","SYNTH-015","WEIGHT","Weight (kg)","Week 20",20,95.9
"SYNTH-OBT2D-26","SYNTH-015","WEIGHT","Weight (kg)","Week 26",26,95.3
"SYNTH-OBT2D-26","SYNTH-016","HBA1C","HbA1c (%)","Baseline",0,7.4
"SYNTH-OBT2D-26","SYNTH-016","HBA1C","HbA1c (%)","Week 4",4,7
"SYNTH-OBT2D-26","SYNTH-016","HBA1C","HbA1c (%)","Week 8",8,6.7
"SYNTH-OBT2D-26","SYNTH-016","HBA1C","HbA1c (%)","Week 12",12,6.5
"SYNTH-OBT2D-26","SYNTH-016","HBA1C","HbA1c (%)","Week 16",16,6.4
"SYNTH-OBT2D-26","SYNTH-016","HBA1C","HbA1c (%)","Week 20",20,6.3
"SYNTH-OBT2D-26","SYNTH-016","HBA1C","HbA1c (%)","Week 26",26,6.2
"SYNTH-OBT2D-26","SYNTH-016","HEIGHT","Height (cm)","Baseline",0,152
"SYNTH-OBT2D-26","SYNTH-016","WEIGHT","Weight (kg)","Baseline",0,72.7
"SYNTH-OBT2D-26","SYNTH-016","WEIGHT","Weight (kg)","Week 4",4,70.6
"SYNTH-OBT2D-26","SYNTH-016","WEIGHT","Weight (kg)","Week 8",8,68.8
"SYNTH-OBT2D-26","SYNTH-016","WEIGHT","Weight (kg)","Week 12",12,67.6
"SYNTH-OBT2D-26","SYNTH-016","WEIGHT","Weight (kg)","Week 16",16,66.8
"SYNTH-OBT2D-26","SYNTH-016","WEIGHT","Weight (kg)","Week 20",20,65.9
"SYNTH-OBT2D-26","SYNTH-016","WEIGHT","Weight (kg)","Week 26",26,65.4
"SYNTH-OBT2D-26","SYNTH-017","HBA1C","HbA1c (%)","Baseline",0,8.4
"SYNTH-OBT2D-26","SYNTH-017","HBA1C","HbA1c (%)","Week 4",4,8.1
"SYNTH-OBT2D-26","SYNTH-017","HBA1C","HbA1c (%)","Week 8",8,8
"SYNTH-OBT2D-26","SYNTH-017","HBA1C","HbA1c (%)","Week 12",12,7.8
"SYNTH-OBT2D-26","SYNTH-017","HBA1C","HbA1c (%)","Week 16",16,7.7
"SYNTH-OBT2D-26","SYNTH-017","HBA1C","HbA1c (%)","Week 20",20,7.6
"SYNTH-OBT2D-26","SYNTH-017","HBA1C","HbA1c (%)","Week 26",26,7.5
"SYNTH-OBT2D-26","SYNTH-017","HEIGHT","Height (cm)","Baseline",0,180
"SYNTH-OBT2D-26","SYNTH-017","WEIGHT","Weight (kg)","Baseline",0,115.5
"SYNTH-OBT2D-26","SYNTH-017","WEIGHT","Weight (kg)","Week 4",4,111.8
"SYNTH-OBT2D-26","SYNTH-017","WEIGHT","Weight (kg)","Week 8",8,110.2
"SYNTH-OBT2D-26","SYNTH-017","WEIGHT","Weight (kg)","Week 12",12,108.1
"SYNTH-OBT2D-26","SYNTH-017","WEIGHT","Weight (kg)","Week 16",16,107.1
"SYNTH-OBT2D-26","SYNTH-017","WEIGHT","Weight (kg)","Week 20",20,106
"SYNTH-OBT2D-26","SYNTH-017","WEIGHT","Weight (kg)","Week 26",26,105.7
"SYNTH-OBT2D-26","SYNTH-018","HBA1C","HbA1c (%)","Baseline",0,8.2
"SYNTH-OBT2D-26","SYNTH-018","HBA1C","HbA1c (%)","Week 4",4,7.8
"SYNTH-OBT2D-26","SYNTH-018","HBA1C","HbA1c (%)","Week 8",8,7.6
"SYNTH-OBT2D-26","SYNTH-018","HBA1C","HbA1c (%)","Week 12",12,7.5
"SYNTH-OBT2D-26","SYNTH-018","HBA1C","HbA1c (%)","Week 16",16,7.2
"SYNTH-OBT2D-26","SYNTH-018","HBA1C","HbA1c (%)","Week 20",20,7.3
"SYNTH-OBT2D-26","SYNTH-018","HBA1C","HbA1c (%)","Week 26",26,7.1
"SYNTH-OBT2D-26","SYNTH-018","HEIGHT","Height (cm)","Baseline",0,152
"SYNTH-OBT2D-26","SYNTH-018","WEIGHT","Weight (kg)","Baseline",0,77.5
"SYNTH-OBT2D-26","SYNTH-018","WEIGHT","Weight (kg)","Week 4",4,75.1
"SYNTH-OBT2D-26","SYNTH-018","WEIGHT","Weight (kg)","Week 8",8,73.6
"SYNTH-OBT2D-26","SYNTH-018","WEIGHT","Weight (kg)","Week 12",12,72.5
"SYNTH-OBT2D-26","SYNTH-018","WEIGHT","Weight (kg)","Week 16",16,71.5
"SYNTH-OBT2D-26","SYNTH-018","WEIGHT","Weight (kg)","Week 20",20,70.8
"SYNTH-OBT2D-26","SYNTH-018","WEIGHT","Weight (kg)","Week 26",26,70.4
"SYNTH-OBT2D-26","SYNTH-019","HBA1C","HbA1c (%)","Baseline",0,8.2
"SYNTH-OBT2D-26","SYNTH-019","HBA1C","HbA1c (%)","Week 4",4,8
"SYNTH-OBT2D-26","SYNTH-019","HBA1C","HbA1c (%)","Week 8",8,7.8
"SYNTH-OBT2D-26","SYNTH-019","HBA1C","HbA1c (%)","Week 12",12,7.8
"SYNTH-OBT2D-26","SYNTH-019","HBA1C","HbA1c (%)","Week 16",16,7.8
"SYNTH-OBT2D-26","SYNTH-019","HBA1C","HbA1c (%)","Week 20",20,7.7
"SYNTH-OBT2D-26","SYNTH-019","HBA1C","HbA1c (%)","Week 26",26,7.7
"SYNTH-OBT2D-26","SYNTH-019","HEIGHT","Height (cm)","Baseline",0,183
"SYNTH-OBT2D-26","SYNTH-019","WEIGHT","Weight (kg)","Baseline",0,103.4
"SYNTH-OBT2D-26","SYNTH-019","WEIGHT","Weight (kg)","Week 4",4,101.7
"SYNTH-OBT2D-26","SYNTH-019","WEIGHT","Weight (kg)","Week 8",8,100.7
"SYNTH-OBT2D-26","SYNTH-019","WEIGHT","Weight (kg)","Week 12",12,99.7
"SYNTH-OBT2D-26","SYNTH-019","WEIGHT","Weight (kg)","Week 16",16,99.2
"SYNTH-OBT2D-26","SYNTH-019","WEIGHT","Weight (kg)","Week 20",20,98.9
"SYNTH-OBT2D-26","SYNTH-019","WEIGHT","Weight (kg)","Week 26",26,98.2
"SYNTH-OBT2D-26","SYNTH-020","HBA1C","HbA1c (%)","Baseline",0,9.2
"SYNTH-OBT2D-26","SYNTH-020","HBA1C","HbA1c (%)","Week 4",4,8.7
"SYNTH-OBT2D-26","SYNTH-020","HBA1C","HbA1c (%)","Week 8",8,8.4
"SYNTH-OBT2D-26","SYNTH-020","HBA1C","HbA1c (%)","Week 12",12,8.3
"SYNTH-OBT2D-26","SYNTH-020","HBA1C","HbA1c (%)","Week 16",16,8
"SYNTH-OBT2D-26","SYNTH-020","HBA1C","HbA1c (%)","Week 20",20,8
"SYNTH-OBT2D-26","SYNTH-020","HBA1C","HbA1c (%)","Week 26",26,7.9
"SYNTH-OBT2D-26","SYNTH-020","HEIGHT","Height (cm)","Baseline",0,176
"SYNTH-OBT2D-26","SYNTH-020","WEIGHT","Weight (kg)","Baseline",0,94.9
"SYNTH-OBT2D-26","SYNTH-020","WEIGHT","Weight (kg)","Week 4",4,91.8
"SYNTH-OBT2D-26","SYNTH-020","WEIGHT","Weight (kg)","Week 8",8,90
"SYNTH-OBT2D-26","SYNTH-020","WEIGHT","Weight (kg)","Week 12",12,87.7
"SYNTH-OBT2D-26","SYNTH-020","WEIGHT","Weight (kg)","Week 16",16,86.7
"SYNTH-OBT2D-26","SYNTH-020","WEIGHT","Weight (kg)","Week 20",20,86.2
"SYNTH-OBT2D-26","SYNTH-020","WEIGHT","Weight (kg)","Week 26",26,85.4
"SYNTH-OBT2D-26","SYNTH-021","HBA1C","HbA1c (%)","Baseline",0,8.3
"SYNTH-OBT2D-26","SYNTH-021","HBA1C","HbA1c (%)","Week 4",4,8
"SYNTH-OBT2D-26","SYNTH-021","HBA1C","HbA1c (%)","Week 8",8,7.7
"SYNTH-OBT2D-26","SYNTH-021","HBA1C","HbA1c (%)","Week 12",12,7.6
"SYNTH-OBT2D-26","SYNTH-021","HBA1C","HbA1c (%)","Week 16",16,7.5
"SYNTH-OBT2D-26","SYNTH-021","HBA1C","HbA1c (%)","Week 20",20,7.4
"SYNTH-OBT2D-26","SYNTH-021","HBA1C","HbA1c (%)","Week 26",26,7.3
"SYNTH-OBT2D-26","SYNTH-021","HEIGHT","Height (cm)","Baseline",0,176
"SYNTH-OBT2D-26","SYNTH-021","WEIGHT","Weight (kg)","Baseline",0,105.9
"SYNTH-OBT2D-26","SYNTH-021","WEIGHT","Weight (kg)","Week 4",4,102.6
"SYNTH-OBT2D-26","SYNTH-021","WEIGHT","Weight (kg)","Week 8",8,100.2
"SYNTH-OBT2D-26","SYNTH-021","WEIGHT","Weight (kg)","Week 12",12,97.7
"SYNTH-OBT2D-26","SYNTH-021","WEIGHT","Weight (kg)","Week 16",16,97.3
"SYNTH-OBT2D-26","SYNTH-021","WEIGHT","Weight (kg)","Week 20",20,96.1
"SYNTH-OBT2D-26","SYNTH-021","WEIGHT","Weight (kg)","Week 26",26,95.3
"SYNTH-OBT2D-26","SYNTH-022","HBA1C","HbA1c (%)","Baseline",0,8.9
"SYNTH-OBT2D-26","SYNTH-022","HBA1C","HbA1c (%)","Week 4",4,8.5
"SYNTH-OBT2D-26","SYNTH-022","HBA1C","HbA1c (%)","Week 8",8,8.1
"SYNTH-OBT2D-26","SYNTH-022","HBA1C","HbA1c (%)","Week 12",12,8
"SYNTH-OBT2D-26","SYNTH-022","HBA1C","HbA1c (%)","Week 16",16,7.9
"SYNTH-OBT2D-26","SYNTH-022","HBA1C","HbA1c (%)","Week 20",20,7.8
"SYNTH-OBT2D-26","SYNTH-022","HBA1C","HbA1c (%)","Week 26",26,7.7
"SYNTH-OBT2D-26","SYNTH-022","HEIGHT","Height (cm)","Baseline",0,169
"SYNTH-OBT2D-26","SYNTH-022","WEIGHT","Weight (kg)","Baseline",0,96.6
"SYNTH-OBT2D-26","SYNTH-022","WEIGHT","Weight (kg)","Week 4",4,93.4
"SYNTH-OBT2D-26","SYNTH-022","WEIGHT","Weight (kg)","Week 8",8,91.6
"SYNTH-OBT2D-26","SYNTH-022","WEIGHT","Weight (kg)","Week 12",12,89.6
"SYNTH-OBT2D-26","SYNTH-022","WEIGHT","Weight (kg)","Week 16",16,88.7
"SYNTH-OBT2D-26","SYNTH-022","WEIGHT","Weight (kg)","Week 20",20,87.3
"SYNTH-OBT2D-26","SYNTH-022","WEIGHT","Weight (kg)","Week 26",26,86.9
"SYNTH-OBT2D-26","SYNTH-023","HBA1C","HbA1c (%)","Baseline",0,7.8
"SYNTH-OBT2D-26","SYNTH-023","HBA1C","HbA1c (%)","Week 4",4,7.9
"SYNTH-OBT2D-26","SYNTH-023","HBA1C","HbA1c (%)","Week 8",8,7.9
"SYNTH-OBT2D-26","SYNTH-023","HBA1C","HbA1c (%)","Week 12",12,7.9
"SYNTH-OBT2D-26","SYNTH-023","HBA1C","HbA1c (%)","Week 16",16,8
"SYNTH-OBT2D-26","SYNTH-023","HBA1C","HbA1c (%)","Week 20",20,8
"SYNTH-OBT2D-26","SYNTH-023","HBA1C","HbA1c (%)","Week 26",26,8
"SYNTH-OBT2D-26","SYNTH-023","HEIGHT","Height (cm)","Baseline",0,168
"SYNTH-OBT2D-26","SYNTH-023","WEIGHT","Weight (kg)","Baseline",0,88.9
"SYNTH-OBT2D-26","SYNTH-023","WEIGHT","Weight (kg)","Week 4",4,89.6
"SYNTH-OBT2D-26","SYNTH-023","WEIGHT","Weight (kg)","Week 8",8,90.2
"SYNTH-OBT2D-26","SYNTH-023","WEIGHT","Weight (kg)","Week 12",12,91
"SYNTH-OBT2D-26","SYNTH-023","WEIGHT","Weight (kg)","Week 16",16,91
"SYNTH-OBT2D-26","SYNTH-023","WEIGHT","Weight (kg)","Week 20",20,91.7
"SYNTH-OBT2D-26","SYNTH-023","WEIGHT","Weight (kg)","Week 26",26,91.7
"SYNTH-OBT2D-26","SYNTH-024","HBA1C","HbA1c (%)","Baseline",0,9.2
"SYNTH-OBT2D-26","SYNTH-024","HBA1C","HbA1c (%)","Week 4",4,8.9
"SYNTH-OBT2D-26","SYNTH-024","HBA1C","HbA1c (%)","Week 8",8,8.7
"SYNTH-OBT2D-26","SYNTH-024","HBA1C","HbA1c (%)","Week 12",12,8.6
"SYNTH-OBT2D-26","SYNTH-024","HBA1C","HbA1c (%)","Week 16",16,8.4
"SYNTH-OBT2D-26","SYNTH-024","HBA1C","HbA1c (%)","Week 20",20,8.4
"SYNTH-OBT2D-26","SYNTH-024","HBA1C","HbA1c (%)","Week 26",26,8.3
"SYNTH-OBT2D-26","SYNTH-024","HEIGHT","Height (cm)","Baseline",0,169
"SYNTH-OBT2D-26","SYNTH-024","WEIGHT","Weight (kg)","Baseline",0,120.9
"SYNTH-OBT2D-26","SYNTH-024","WEIGHT","Weight (kg)","Week 4",4,118.5
"SYNTH-OBT2D-26","SYNTH-024","WEIGHT","Weight (kg)","Week 8",8,116.4
"SYNTH-OBT2D-26","SYNTH-024","WEIGHT","Weight (kg)","Week 12",12,115.2
"SYNTH-OBT2D-26","SYNTH-024","WEIGHT","Weight (kg)","Week 16",16,114
"SYNTH-OBT2D-26","SYNTH-024","WEIGHT","Weight (kg)","Week 20",20,113
"SYNTH-OBT2D-26","SYNTH-024","WEIGHT","Weight (kg)","Week 26",26,112.6
"SYNTH-OBT2D-26","SYNTH-025","HBA1C","HbA1c (%)","Baseline",0,7.8
"SYNTH-OBT2D-26","SYNTH-025","HBA1C","HbA1c (%)","Week 4",4,7.5
"SYNTH-OBT2D-26","SYNTH-025","HBA1C","HbA1c (%)","Week 8",8,7.4
"SYNTH-OBT2D-26","SYNTH-025","HBA1C","HbA1c (%)","Week 12",12,7.4
"SYNTH-OBT2D-26","SYNTH-025","HBA1C","HbA1c (%)","Week 16",16,7.5
"SYNTH-OBT2D-26","SYNTH-025","HBA1C","HbA1c (%)","Week 20",20,7.3
"SYNTH-OBT2D-26","SYNTH-025","HBA1C","HbA1c (%)","Week 26",26,7.3
"SYNTH-OBT2D-26","SYNTH-025","HEIGHT","Height (cm)","Baseline",0,185
"SYNTH-OBT2D-26","SYNTH-025","WEIGHT","Weight (kg)","Baseline",0,96.2
"SYNTH-OBT2D-26","SYNTH-025","WEIGHT","Weight (kg)","Week 4",4,95.4
"SYNTH-OBT2D-26","SYNTH-025","WEIGHT","Weight (kg)","Week 8",8,94.5
"SYNTH-OBT2D-26","SYNTH-025","WEIGHT","Weight (kg)","Week 12",12,93.6
"SYNTH-OBT2D-26","SYNTH-025","WEIGHT","Weight (kg)","Week 16",16,93.1
"SYNTH-OBT2D-26","SYNTH-025","WEIGHT","Weight (kg)","Week 20",20,92.8
"SYNTH-OBT2D-26","SYNTH-025","WEIGHT","Weight (kg)","Week 26",26,92.6
"SYNTH-OBT2D-26","SYNTH-026","HBA1C","HbA1c (%)","Baseline",0,8.6
"SYNTH-OBT2D-26","SYNTH-026","HBA1C","HbA1c (%)","Week 4",4,8.3
"SYNTH-OBT2D-26","SYNTH-026","HBA1C","HbA1c (%)","Week 8",8,8.1
"SYNTH-OBT2D-26","SYNTH-026","HBA1C","HbA1c (%)","Week 12",12,8.1
"SYNTH-OBT2D-26","SYNTH-026","HBA1C","HbA1c (%)","Week 16",16,8.1
"SYNTH-OBT2D-26","SYNTH-026","HBA1C","HbA1c (%)","Week 20",20,8
"SYNTH-OBT2D-26","SYNTH-026","HBA1C","HbA1c (%)","Week 26",26,7.9
"SYNTH-OBT2D-26","SYNTH-026","HEIGHT","Height (cm)","Baseline",0,162
"SYNTH-OBT2D-26","SYNTH-026","WEIGHT","Weight (kg)","Baseline",0,103.4
"SYNTH-OBT2D-26","SYNTH-026","WEIGHT","Weight (kg)","Week 4",4,101.2
"SYNTH-OBT2D-26","SYNTH-026","WEIGHT","Weight (kg)","Week 8",8,99.6
"SYNTH-OBT2D-26","SYNTH-026","WEIGHT","Weight (kg)","Week 12",12,98.5
"SYNTH-OBT2D-26","SYNTH-026","WEIGHT","Weight (kg)","Week 16",16,97.4
"SYNTH-OBT2D-26","SYNTH-026","WEIGHT","Weight (kg)","Week 20",20,96.9
"SYNTH-OBT2D-26","SYNTH-026","WEIGHT","Weight (kg)","Week 26",26,96.4
"SYNTH-OBT2D-26","SYNTH-027","HBA1C","HbA1c (%)","Baseline",0,9.2
"SYNTH-OBT2D-26","SYNTH-027","HBA1C","HbA1c (%)","Week 4",4,9
"SYNTH-OBT2D-26","SYNTH-027","HBA1C","HbA1c (%)","Week 8",8,9.2
"SYNTH-OBT2D-26","SYNTH-027","HBA1C","HbA1c (%)","Week 12",12,9.1
"SYNTH-OBT2D-26","SYNTH-027","HBA1C","HbA1c (%)","Week 16",16,9
"SYNTH-OBT2D-26","SYNTH-027","HBA1C","HbA1c (%)","Week 20",20,9
"SYNTH-OBT2D-26","SYNTH-027","HBA1C","HbA1c (%)","Week 26",26,9
"SYNTH-OBT2D-26","SYNTH-027","HEIGHT","Height (cm)","Baseline",0,177
"SYNTH-OBT2D-26","SYNTH-027","WEIGHT","Weight (kg)","Baseline",0,115.8
"SYNTH-OBT2D-26","SYNTH-027","WEIGHT","Weight (kg)","Week 4",4,115.7
"SYNTH-OBT2D-26","SYNTH-027","WEIGHT","Weight (kg)","Week 8",8,115.8
"SYNTH-OBT2D-26","SYNTH-027","WEIGHT","Weight (kg)","Week 12",12,115.8
"SYNTH-OBT2D-26","SYNTH-027","WEIGHT","Weight (kg)","Week 16",16,115.8
"SYNTH-OBT2D-26","SYNTH-027","WEIGHT","Weight (kg)","Week 20",20,115.3
"SYNTH-OBT2D-26","SYNTH-027","WEIGHT","Weight (kg)","Week 26",26,115.6
"SYNTH-OBT2D-26","SYNTH-028","HBA1C","HbA1c (%)","Baseline",0,7.4
"SYNTH-OBT2D-26","SYNTH-028","HBA1C","HbA1c (%)","Week 4",4,7.3
"SYNTH-OBT2D-26","SYNTH-028","HBA1C","HbA1c (%)","Week 8",8,7.3
"SYNTH-OBT2D-26","SYNTH-028","HBA1C","HbA1c (%)","Week 12",12,7.4
"SYNTH-OBT2D-26","SYNTH-028","HBA1C","HbA1c (%)","Week 16",16,7.2
"SYNTH-OBT2D-26","SYNTH-028","HBA1C","HbA1c (%)","Week 20",20,7.2
"SYNTH-OBT2D-26","SYNTH-028","HBA1C","HbA1c (%)","Week 26",26,7.2
"SYNTH-OBT2D-26","SYNTH-028","HEIGHT","Height (cm)","Baseline",0,182
"SYNTH-OBT2D-26","SYNTH-028","WEIGHT","Weight (kg)","Baseline",0,126.8
"SYNTH-OBT2D-26","SYNTH-028","WEIGHT","Weight (kg)","Week 4",4,126.5
"SYNTH-OBT2D-26","SYNTH-028","WEIGHT","Weight (kg)","Week 8",8,126.7
"SYNTH-OBT2D-26","SYNTH-028","WEIGHT","Weight (kg)","Week 12",12,126.8
"SYNTH-OBT2D-26","SYNTH-028","WEIGHT","Weight (kg)","Week 16",16,126.7
"SYNTH-OBT2D-26","SYNTH-028","WEIGHT","Weight (kg)","Week 20",20,126.4
"SYNTH-OBT2D-26","SYNTH-028","WEIGHT","Weight (kg)","Week 26",26,126.4
"SYNTH-OBT2D-26","SYNTH-029","HBA1C","HbA1c (%)","Baseline",0,7.9
"SYNTH-OBT2D-26","SYNTH-029","HBA1C","HbA1c (%)","Week 4",4,7.9
"SYNTH-OBT2D-26","SYNTH-029","HBA1C","HbA1c (%)","Week 8",8,8
"SYNTH-OBT2D-26","SYNTH-029","HBA1C","HbA1c (%)","Week 12",12,8
"SYNTH-OBT2D-26","SYNTH-029","HBA1C","HbA1c (%)","Week 16",16,8
"SYNTH-OBT2D-26","SYNTH-029","HBA1C","HbA1c (%)","Week 20",20,8
"SYNTH-OBT2D-26","SYNTH-029","HBA1C","HbA1c (%)","Week 26",26,8
"SYNTH-OBT2D-26","SYNTH-029","HEIGHT","Height (cm)","Baseline",0,171
"SYNTH-OBT2D-26","SYNTH-029","WEIGHT","Weight (kg)","Baseline",0,96.8
"SYNTH-OBT2D-26","SYNTH-029","WEIGHT","Weight (kg)","Week 4",4,96.5
"SYNTH-OBT2D-26","SYNTH-029","WEIGHT","Weight (kg)","Week 8",8,96.9
"SYNTH-OBT2D-26","SYNTH-029","WEIGHT","Weight (kg)","Week 12",12,96.9
"SYNTH-OBT2D-26","SYNTH-029","WEIGHT","Weight (kg)","Week 16",16,97.1
"SYNTH-OBT2D-26","SYNTH-029","WEIGHT","Weight (kg)","Week 20",20,97.1
"SYNTH-OBT2D-26","SYNTH-029","WEIGHT","Weight (kg)","Week 26",26,96.9
"SYNTH-OBT2D-26","SYNTH-030","HBA1C","HbA1c (%)","Baseline",0,8.5
"SYNTH-OBT2D-26","SYNTH-030","HBA1C","HbA1c (%)","Week 4",4,8.3
"SYNTH-OBT2D-26","SYNTH-030","HBA1C","HbA1c (%)","Week 8",8,8.2
"SYNTH-OBT2D-26","SYNTH-030","HBA1C","HbA1c (%)","Week 12",12,8.2
"SYNTH-OBT2D-26","SYNTH-030","HBA1C","HbA1c (%)","Week 16",16,7.9
"SYNTH-OBT2D-26","SYNTH-030","HBA1C","HbA1c (%)","Week 20",20,7.9
"SYNTH-OBT2D-26","SYNTH-030","HBA1C","HbA1c (%)","Week 26",26,7.9
"SYNTH-OBT2D-26","SYNTH-030","HEIGHT","Height (cm)","Baseline",0,161
"SYNTH-OBT2D-26","SYNTH-030","WEIGHT","Weight (kg)","Baseline",0,75.6
"SYNTH-OBT2D-26","SYNTH-030","WEIGHT","Weight (kg)","Week 4",4,73.8
"SYNTH-OBT2D-26","SYNTH-030","WEIGHT","Weight (kg)","Week 8",8,72.5
"SYNTH-OBT2D-26","SYNTH-030","WEIGHT","Weight (kg)","Week 12",12,71.9
"SYNTH-OBT2D-26","SYNTH-030","WEIGHT","Weight (kg)","Week 16",16,70.8
"SYNTH-OBT2D-26","SYNTH-030","WEIGHT","Weight (kg)","Week 20",20,70.5
"SYNTH-OBT2D-26","SYNTH-030","WEIGHT","Weight (kg)","Week 26",26,70.1
"SYNTH-OBT2D-26","SYNTH-031","HBA1C","HbA1c (%)","Baseline",0,7.1
"SYNTH-OBT2D-26","SYNTH-031","HBA1C","HbA1c (%)","Week 4",4,6.7
"SYNTH-OBT2D-26","SYNTH-031","HBA1C","HbA1c (%)","Week 8",8,6.2
"SYNTH-OBT2D-26","SYNTH-031","HBA1C","HbA1c (%)","Week 12",12,6
"SYNTH-OBT2D-26","SYNTH-031","HBA1C","HbA1c (%)","Week 16",16,5.7
"SYNTH-OBT2D-26","SYNTH-031","HBA1C","HbA1c (%)","Week 20",20,5.6
"SYNTH-OBT2D-26","SYNTH-031","HBA1C","HbA1c (%)","Week 26",26,5.5
"SYNTH-OBT2D-26","SYNTH-031","HEIGHT","Height (cm)","Baseline",0,168
"SYNTH-OBT2D-26","SYNTH-031","WEIGHT","Weight (kg)","Baseline",0,82
"SYNTH-OBT2D-26","SYNTH-031","WEIGHT","Weight (kg)","Week 4",4,77.2
"SYNTH-OBT2D-26","SYNTH-031","WEIGHT","Weight (kg)","Week 8",8,73.4
"SYNTH-OBT2D-26","SYNTH-031","WEIGHT","Weight (kg)","Week 12",12,71.4
"SYNTH-OBT2D-26","SYNTH-031","WEIGHT","Weight (kg)","Week 16",16,70
"SYNTH-OBT2D-26","SYNTH-031","WEIGHT","Weight (kg)","Week 20",20,68.3
"SYNTH-OBT2D-26","SYNTH-031","WEIGHT","Weight (kg)","Week 26",26,67.2
"SYNTH-OBT2D-26","SYNTH-032","HBA1C","HbA1c (%)","Baseline",0,9.3
"SYNTH-OBT2D-26","SYNTH-032","HBA1C","HbA1c (%)","Week 4",4,8.7
"SYNTH-OBT2D-26","SYNTH-032","HBA1C","HbA1c (%)","Week 8",8,8.4
"SYNTH-OBT2D-26","SYNTH-032","HBA1C","HbA1c (%)","Week 12",12,8.2
"SYNTH-OBT2D-26","SYNTH-032","HBA1C","HbA1c (%)","Week 16",16,8.1
"SYNTH-OBT2D-26","SYNTH-032","HBA1C","HbA1c (%)","Week 20",20,7.8
"SYNTH-OBT2D-26","SYNTH-032","HBA1C","HbA1c (%)","Week 26",26,7.7
"SYNTH-OBT2D-26","SYNTH-032","HEIGHT","Height (cm)","Baseline",0,187
"SYNTH-OBT2D-26","SYNTH-032","WEIGHT","Weight (kg)","Baseline",0,96.9
"SYNTH-OBT2D-26","SYNTH-032","WEIGHT","Weight (kg)","Week 4",4,90.7
"SYNTH-OBT2D-26","SYNTH-032","WEIGHT","Weight (kg)","Week 8",8,87.1
"SYNTH-OBT2D-26","SYNTH-032","WEIGHT","Weight (kg)","Week 12",12,83.7
"SYNTH-OBT2D-26","SYNTH-032","WEIGHT","Weight (kg)","Week 16",16,81.5
"SYNTH-OBT2D-26","SYNTH-032","WEIGHT","Weight (kg)","Week 20",20,80.1
"SYNTH-OBT2D-26","SYNTH-032","WEIGHT","Weight (kg)","Week 26",26,79.1
"SYNTH-OBT2D-26","SYNTH-033","HBA1C","HbA1c (%)","Baseline",0,7.8
"SYNTH-OBT2D-26","SYNTH-033","HBA1C","HbA1c (%)","Week 4",4,7.4
"SYNTH-OBT2D-26","SYNTH-033","HBA1C","HbA1c (%)","Week 8",8,7.1
"SYNTH-OBT2D-26","SYNTH-033","HBA1C","HbA1c (%)","Week 12",12,6.9
"SYNTH-OBT2D-26","SYNTH-033","HBA1C","HbA1c (%)","Week 16",16,6.7
"SYNTH-OBT2D-26","SYNTH-033","HBA1C","HbA1c (%)","Week 20",20,6.6
"SYNTH-OBT2D-26","SYNTH-033","HBA1C","HbA1c (%)","Week 26",26,6.5
"SYNTH-OBT2D-26","SYNTH-033","HEIGHT","Height (cm)","Baseline",0,177
"SYNTH-OBT2D-26","SYNTH-033","WEIGHT","Weight (kg)","Baseline",0,121
"SYNTH-OBT2D-26","SYNTH-033","WEIGHT","Weight (kg)","Week 4",4,115.8
"SYNTH-OBT2D-26","SYNTH-033","WEIGHT","Weight (kg)","Week 8",8,112.2
"SYNTH-OBT2D-26","SYNTH-033","WEIGHT","Weight (kg)","Week 12",12,109.6
"SYNTH-OBT2D-26","SYNTH-033","WEIGHT","Weight (kg)","Week 16",16,108.3
"SYNTH-OBT2D-26","SYNTH-033","WEIGHT","Weight (kg)","Week 20",20,107
"SYNTH-OBT2D-26","SYNTH-033","WEIGHT","Weight (kg)","Week 26",26,105.3
"SYNTH-OBT2D-26","SYNTH-034","HBA1C","HbA1c (%)","Baseline",0,8.7
"SYNTH-OBT2D-26","SYNTH-034","HBA1C","HbA1c (%)","Week 4",4,8.3
"SYNTH-OBT2D-26","SYNTH-034","HBA1C","HbA1c (%)","Week 8",8,8
"SYNTH-OBT2D-26","SYNTH-034","HBA1C","HbA1c (%)","Week 12",12,7.8
"SYNTH-OBT2D-26","SYNTH-034","HBA1C","HbA1c (%)","Week 16",16,7.6
"SYNTH-OBT2D-26","SYNTH-034","HBA1C","HbA1c (%)","Week 20",20,7.5
"SYNTH-OBT2D-26","SYNTH-034","HBA1C","HbA1c (%)","Week 26",26,7.4
"SYNTH-OBT2D-26","SYNTH-034","HEIGHT","Height (cm)","Baseline",0,178
"SYNTH-OBT2D-26","SYNTH-034","WEIGHT","Weight (kg)","Baseline",0,115.9
"SYNTH-OBT2D-26","SYNTH-034","WEIGHT","Weight (kg)","Week 4",4,110.6
"SYNTH-OBT2D-26","SYNTH-034","WEIGHT","Weight (kg)","Week 8",8,106.5
"SYNTH-OBT2D-26","SYNTH-034","WEIGHT","Weight (kg)","Week 12",12,104.1
"SYNTH-OBT2D-26","SYNTH-034","WEIGHT","Weight (kg)","Week 16",16,102
"SYNTH-OBT2D-26","SYNTH-034","WEIGHT","Weight (kg)","Week 20",20,101.2
"SYNTH-OBT2D-26","SYNTH-034","WEIGHT","Weight (kg)","Week 26",26,99.7
"SYNTH-OBT2D-26","SYNTH-035","HBA1C","HbA1c (%)","Baseline",0,8.1
"SYNTH-OBT2D-26","SYNTH-035","HBA1C","HbA1c (%)","Week 4",4,7.8
"SYNTH-OBT2D-26","SYNTH-035","HBA1C","HbA1c (%)","Week 8",8,7.7
"SYNTH-OBT2D-26","SYNTH-035","HBA1C","HbA1c (%)","Week 12",12,7.5
"SYNTH-OBT2D-26","SYNTH-035","HBA1C","HbA1c (%)","Week 16",16,7.5
"SYNTH-OBT2D-26","SYNTH-035","HBA1C","HbA1c (%)","Week 20",20,7.4
"SYNTH-OBT2D-26","SYNTH-035","HBA1C","HbA1c (%)","Week 26",26,7.3
"SYNTH-OBT2D-26","SYNTH-035","HEIGHT","Height (cm)","Baseline",0,159
"SYNTH-OBT2D-26","SYNTH-035","WEIGHT","Weight (kg)","Baseline",0,71.7
"SYNTH-OBT2D-26","SYNTH-035","WEIGHT","Weight (kg)","Week 4",4,70.1
"SYNTH-OBT2D-26","SYNTH-035","WEIGHT","Weight (kg)","Week 8",8,68.8
"SYNTH-OBT2D-26","SYNTH-035","WEIGHT","Weight (kg)","Week 12",12,68.3
"SYNTH-OBT2D-26","SYNTH-035","WEIGHT","Weight (kg)","Week 16",16,67.6
"SYNTH-OBT2D-26","SYNTH-035","WEIGHT","Weight (kg)","Week 20",20,67.3
"SYNTH-OBT2D-26","SYNTH-035","WEIGHT","Weight (kg)","Week 26",26,67
"SYNTH-OBT2D-26","SYNTH-036","HBA1C","HbA1c (%)","Baseline",0,8.9
"SYNTH-OBT2D-26","SYNTH-036","HBA1C","HbA1c (%)","Week 4",4,8.9
"SYNTH-OBT2D-26","SYNTH-036","HBA1C","HbA1c (%)","Week 8",8,8.9
"SYNTH-OBT2D-26","SYNTH-036","HBA1C","HbA1c (%)","Week 12",12,8.8
"SYNTH-OBT2D-26","SYNTH-036","HBA1C","HbA1c (%)","Week 16",16,8.8
"SYNTH-OBT2D-26","SYNTH-036","HBA1C","HbA1c (%)","Week 20",20,8.8
"SYNTH-OBT2D-26","SYNTH-036","HBA1C","HbA1c (%)","Week 26",26,8.8
"SYNTH-OBT2D-26","SYNTH-036","HEIGHT","Height (cm)","Baseline",0,154
"SYNTH-OBT2D-26","SYNTH-036","WEIGHT","Weight (kg)","Baseline",0,101
"SYNTH-OBT2D-26","SYNTH-036","WEIGHT","Weight (kg)","Week 4",4,100.1
"SYNTH-OBT2D-26","SYNTH-036","WEIGHT","Weight (kg)","Week 8",8,99.2
"SYNTH-OBT2D-26","SYNTH-036","WEIGHT","Weight (kg)","Week 12",12,98.9
"SYNTH-OBT2D-26","SYNTH-036","WEIGHT","Weight (kg)","Week 16",16,99
"SYNTH-OBT2D-26","SYNTH-036","WEIGHT","Weight (kg)","Week 20",20,98.6
"SYNTH-OBT2D-26","SYNTH-036","WEIGHT","Weight (kg)","Week 26",26,98.4
"SYNTH-OBT2D-26","SYNTH-037","HBA1C","HbA1c (%)","Baseline",0,8.5
"SYNTH-OBT2D-26","SYNTH-037","HBA1C","HbA1c (%)","Week 4",4,8.4
"SYNTH-OBT2D-26","SYNTH-037","HBA1C","HbA1c (%)","Week 8",8,8.4
"SYNTH-OBT2D-26","SYNTH-037","HBA1C","HbA1c (%)","Week 12",12,8.4
"SYNTH-OBT2D-26","SYNTH-037","HBA1C","HbA1c (%)","Week 16",16,8.3
"SYNTH-OBT2D-26","SYNTH-037","HBA1C","HbA1c (%)","Week 20",20,8.3
"SYNTH-OBT2D-26","SYNTH-037","HBA1C","HbA1c (%)","Week 26",26,8.3
"SYNTH-OBT2D-26","SYNTH-037","HEIGHT","Height (cm)","Baseline",0,174
"SYNTH-OBT2D-26","SYNTH-037","WEIGHT","Weight (kg)","Baseline",0,118.6
"SYNTH-OBT2D-26","SYNTH-037","WEIGHT","Weight (kg)","Week 4",4,117.7
"SYNTH-OBT2D-26","SYNTH-037","WEIGHT","Weight (kg)","Week 8",8,117.4
"SYNTH-OBT2D-26","SYNTH-037","WEIGHT","Weight (kg)","Week 12",12,117.2
"SYNTH-OBT2D-26","SYNTH-037","WEIGHT","Weight (kg)","Week 16",16,116.7
"SYNTH-OBT2D-26","SYNTH-037","WEIGHT","Weight (kg)","Week 20",20,116.1
"SYNTH-OBT2D-26","SYNTH-037","WEIGHT","Weight (kg)","Week 26",26,116
"SYNTH-OBT2D-26","SYNTH-038","HBA1C","HbA1c (%)","Baseline",0,8.2
"SYNTH-OBT2D-26","SYNTH-038","HBA1C","HbA1c (%)","Week 4",4,7.9
"SYNTH-OBT2D-26","SYNTH-038","HBA1C","HbA1c (%)","Week 8",8,7.8
"SYNTH-OBT2D-26","SYNTH-038","HBA1C","HbA1c (%)","Week 12",12,7.6
"SYNTH-OBT2D-26","SYNTH-038","HBA1C","HbA1c (%)","Week 16",16,7.5
"SYNTH-OBT2D-26","SYNTH-038","HBA1C","HbA1c (%)","Week 20",20,7.5
"SYNTH-OBT2D-26","SYNTH-038","HBA1C","HbA1c (%)","Week 26",26,7.4
"SYNTH-OBT2D-26","SYNTH-038","HEIGHT","Height (cm)","Baseline",0,158
"SYNTH-OBT2D-26","SYNTH-038","WEIGHT","Weight (kg)","Baseline",0,79.5
"SYNTH-OBT2D-26","SYNTH-038","WEIGHT","Weight (kg)","Week 4",4,77.8
"SYNTH-OBT2D-26","SYNTH-038","WEIGHT","Weight (kg)","Week 8",8,76.3
"SYNTH-OBT2D-26","SYNTH-038","WEIGHT","Weight (kg)","Week 12",12,75.3
"SYNTH-OBT2D-26","SYNTH-038","WEIGHT","Weight (kg)","Week 16",16,75.1
"SYNTH-OBT2D-26","SYNTH-038","WEIGHT","Weight (kg)","Week 20",20,74.1
"SYNTH-OBT2D-26","SYNTH-038","WEIGHT","Weight (kg)","Week 26",26,73.8
"SYNTH-OBT2D-26","SYNTH-039","HBA1C","HbA1c (%)","Baseline",0,9.6
"SYNTH-OBT2D-26","SYNTH-039","HBA1C","HbA1c (%)","Week 4",4,9.5
"SYNTH-OBT2D-26","SYNTH-039","HBA1C","HbA1c (%)","Week 8",8,9.3
"SYNTH-OBT2D-26","SYNTH-039","HBA1C","HbA1c (%)","Week 12",12,9.2
"SYNTH-OBT2D-26","SYNTH-039","HBA1C","HbA1c (%)","Week 16",16,9.2
"SYNTH-OBT2D-26","SYNTH-039","HBA1C","HbA1c (%)","Week 20",20,9.1
"SYNTH-OBT2D-26","SYNTH-039","HBA1C","HbA1c (%)","Week 26",26,9.1
"SYNTH-OBT2D-26","SYNTH-039","HEIGHT","Height (cm)","Baseline",0,163
"SYNTH-OBT2D-26","SYNTH-039","WEIGHT","Weight (kg)","Baseline",0,83.4
"SYNTH-OBT2D-26","SYNTH-039","WEIGHT","Weight (kg)","Week 4",4,82.4
"SYNTH-OBT2D-26","SYNTH-039","WEIGHT","Weight (kg)","Week 8",8,81.6
"SYNTH-OBT2D-26","SYNTH-039","WEIGHT","Weight (kg)","Week 12",12,81.5
"SYNTH-OBT2D-26","SYNTH-039","WEIGHT","Weight (kg)","Week 16",16,80.6
"SYNTH-OBT2D-26","SYNTH-039","WEIGHT","Weight (kg)","Week 20",20,80.7
"SYNTH-OBT2D-26","SYNTH-039","WEIGHT","Weight (kg)","Week 26",26,80.2
"SYNTH-OBT2D-26","SYNTH-040","HBA1C","HbA1c (%)","Baseline",0,8.7
"SYNTH-OBT2D-26","SYNTH-040","HBA1C","HbA1c (%)","Week 4",4,8.3
"SYNTH-OBT2D-26","SYNTH-040","HBA1C","HbA1c (%)","Week 8",8,7.9
"SYNTH-OBT2D-26","SYNTH-040","HBA1C","HbA1c (%)","Week 12",12,7.7
"SYNTH-OBT2D-26","SYNTH-040","HBA1C","HbA1c (%)","Week 16",16,7.5
"SYNTH-OBT2D-26","SYNTH-040","HBA1C","HbA1c (%)","Week 20",20,7.4
"SYNTH-OBT2D-26","SYNTH-040","HBA1C","HbA1c (%)","Week 26",26,7.3
"SYNTH-OBT2D-26","SYNTH-040","HEIGHT","Height (cm)","Baseline",0,163
"SYNTH-OBT2D-26","SYNTH-040","WEIGHT","Weight (kg)","Baseline",0,89.3
"SYNTH-OBT2D-26","SYNTH-040","WEIGHT","Weight (kg)","Week 4",4,85.2
"SYNTH-OBT2D-26","SYNTH-040","WEIGHT","Weight (kg)","Week 8",8,82.4
"SYNTH-OBT2D-26","SYNTH-040","WEIGHT","Weight (kg)","Week 12",12,80.4
"SYNTH-OBT2D-26","SYNTH-040","WEIGHT","Weight (kg)","Week 16",16,78.9
"SYNTH-OBT2D-26","SYNTH-040","WEIGHT","Weight (kg)","Week 20",20,78
"SYNTH-OBT2D-26","SYNTH-040","WEIGHT","Weight (kg)","Week 26",26,76.8
"SYNTH-OBT2D-26","SYNTH-041","HBA1C","HbA1c (%)","Baseline",0,7.9
"SYNTH-OBT2D-26","SYNTH-041","HBA1C","HbA1c (%)","Week 4",4,7.2
"SYNTH-OBT2D-26","SYNTH-041","HBA1C","HbA1c (%)","Week 8",8,6.9
"SYNTH-OBT2D-26","SYNTH-041","HBA1C","HbA1c (%)","Week 12",12,6.6
"SYNTH-OBT2D-26","SYNTH-041","HBA1C","HbA1c (%)","Week 16",16,6.3
"SYNTH-OBT2D-26","SYNTH-041","HBA1C","HbA1c (%)","Week 20",20,6.2
"SYNTH-OBT2D-26","SYNTH-041","HBA1C","HbA1c (%)","Week 26",26,6.1
"SYNTH-OBT2D-26","SYNTH-041","HEIGHT","Height (cm)","Baseline",0,175
"SYNTH-OBT2D-26","SYNTH-041","WEIGHT","Weight (kg)","Baseline",0,97.5
"SYNTH-OBT2D-26","SYNTH-041","WEIGHT","Weight (kg)","Week 4",4,91.4
"SYNTH-OBT2D-26","SYNTH-041","WEIGHT","Weight (kg)","Week 8",8,87
"SYNTH-OBT2D-26","SYNTH-041","WEIGHT","Weight (kg)","Week 12",12,83.6
"SYNTH-OBT2D-26","SYNTH-041","WEIGHT","Weight (kg)","Week 16",16,81.2
"SYNTH-OBT2D-26","SYNTH-041","WEIGHT","Weight (kg)","Week 20",20,79.6
"SYNTH-OBT2D-26","SYNTH-041","WEIGHT","Weight (kg)","Week 26",26,78.1
"SYNTH-OBT2D-26","SYNTH-042","HBA1C","HbA1c (%)","Baseline",0,9.4
"SYNTH-OBT2D-26","SYNTH-042","HBA1C","HbA1c (%)","Week 4",4,8.9
"SYNTH-OBT2D-26","SYNTH-042","HBA1C","HbA1c (%)","Week 8",8,8.7
"SYNTH-OBT2D-26","SYNTH-042","HBA1C","HbA1c (%)","Week 12",12,8.4
"SYNTH-OBT2D-26","SYNTH-042","HBA1C","HbA1c (%)","Week 16",16,8.2
"SYNTH-OBT2D-26","SYNTH-042","HBA1C","HbA1c (%)","Week 20",20,8.1
"SYNTH-OBT2D-26","SYNTH-042","HBA1C","HbA1c (%)","Week 26",26,8
"SYNTH-OBT2D-26","SYNTH-042","HEIGHT","Height (cm)","Baseline",0,161
"SYNTH-OBT2D-26","SYNTH-042","WEIGHT","Weight (kg)","Baseline",0,88.1
"SYNTH-OBT2D-26","SYNTH-042","WEIGHT","Weight (kg)","Week 4",4,85
"SYNTH-OBT2D-26","SYNTH-042","WEIGHT","Weight (kg)","Week 8",8,82.3
"SYNTH-OBT2D-26","SYNTH-042","WEIGHT","Weight (kg)","Week 12",12,80.9
"SYNTH-OBT2D-26","SYNTH-042","WEIGHT","Weight (kg)","Week 16",16,79.4
"SYNTH-OBT2D-26","SYNTH-042","WEIGHT","Weight (kg)","Week 20",20,78.8
"SYNTH-OBT2D-26","SYNTH-042","WEIGHT","Weight (kg)","Week 26",26,77.9
"SYNTH-OBT2D-26","SYNTH-043","HBA1C","HbA1c (%)","Baseline",0,8.8
"SYNTH-OBT2D-26","SYNTH-043","HBA1C","HbA1c (%)","Week 4",4,8.8
"SYNTH-OBT2D-26","SYNTH-043","HBA1C","HbA1c (%)","Week 8",8,8.6
"SYNTH-OBT2D-26","SYNTH-043","HBA1C","HbA1c (%)","Week 12",12,8.6
"SYNTH-OBT2D-26","SYNTH-043","HBA1C","HbA1c (%)","Week 16",16,8.5
"SYNTH-OBT2D-26","SYNTH-043","HBA1C","HbA1c (%)","Week 20",20,8.5
"SYNTH-OBT2D-26","SYNTH-043","HBA1C","HbA1c (%)","Week 26",26,8.5
"SYNTH-OBT2D-26","SYNTH-043","HEIGHT","Height (cm)","Baseline",0,175
"SYNTH-OBT2D-26","SYNTH-043","WEIGHT","Weight (kg)","Baseline",0,85.3
"SYNTH-OBT2D-26","SYNTH-043","WEIGHT","Weight (kg)","Week 4",4,84.8
"SYNTH-OBT2D-26","SYNTH-043","WEIGHT","Weight (kg)","Week 8",8,83.9
"SYNTH-OBT2D-26","SYNTH-043","WEIGHT","Weight (kg)","Week 12",12,83.4
"SYNTH-OBT2D-26","SYNTH-043","WEIGHT","Weight (kg)","Week 16",16,83.2
"SYNTH-OBT2D-26","SYNTH-043","WEIGHT","Weight (kg)","Week 20",20,82.6
"SYNTH-OBT2D-26","SYNTH-043","WEIGHT","Weight (kg)","Week 26",26,82.7
"SYNTH-OBT2D-26","SYNTH-044","HBA1C","HbA1c (%)","Baseline",0,7.8
"SYNTH-OBT2D-26","SYNTH-044","HBA1C","HbA1c (%)","Week 4",4,7.5
"SYNTH-OBT2D-26","SYNTH-044","HBA1C","HbA1c (%)","Week 8",8,7.3
"SYNTH-OBT2D-26","SYNTH-044","HBA1C","HbA1c (%)","Week 12",12,7.1
"SYNTH-OBT2D-26","SYNTH-044","HBA1C","HbA1c (%)","Week 16",16,7
"SYNTH-OBT2D-26","SYNTH-044","HBA1C","HbA1c (%)","Week 20",20,6.9
"SYNTH-OBT2D-26","SYNTH-044","HBA1C","HbA1c (%)","Week 26",26,6.9
"SYNTH-OBT2D-26","SYNTH-044","HEIGHT","Height (cm)","Baseline",0,179
"SYNTH-OBT2D-26","SYNTH-044","WEIGHT","Weight (kg)","Baseline",0,105.9
"SYNTH-OBT2D-26","SYNTH-044","WEIGHT","Weight (kg)","Week 4",4,102.5
"SYNTH-OBT2D-26","SYNTH-044","WEIGHT","Weight (kg)","Week 8",8,100.1
"SYNTH-OBT2D-26","SYNTH-044","WEIGHT","Weight (kg)","Week 12",12,98.6
"SYNTH-OBT2D-26","SYNTH-044","WEIGHT","Weight (kg)","Week 16",16,97.3
"SYNTH-OBT2D-26","SYNTH-044","WEIGHT","Weight (kg)","Week 20",20,96.8
"SYNTH-OBT2D-26","SYNTH-044","WEIGHT","Weight (kg)","Week 26",26,95.5
"SYNTH-OBT2D-26","SYNTH-045","HBA1C","HbA1c (%)","Baseline",0,8.2
"SYNTH-OBT2D-26","SYNTH-045","HBA1C","HbA1c (%)","Week 4",4,8.2
"SYNTH-OBT2D-26","SYNTH-045","HBA1C","HbA1c (%)","Week 8",8,8.2
"SYNTH-OBT2D-26","SYNTH-045","HBA1C","HbA1c (%)","Week 12",12,8.1
"SYNTH-OBT2D-26","SYNTH-045","HBA1C","HbA1c (%)","Week 16",16,8
"SYNTH-OBT2D-26","SYNTH-045","HBA1C","HbA1c (%)","Week 20",20,8
"SYNTH-OBT2D-26","SYNTH-045","HBA1C","HbA1c (%)","Week 26",26,8
"SYNTH-OBT2D-26","SYNTH-045","HEIGHT","Height (cm)","Baseline",0,174
"SYNTH-OBT2D-26","SYNTH-045","WEIGHT","Weight (kg)","Baseline",0,89.2
"SYNTH-OBT2D-26","SYNTH-045","WEIGHT","Weight (kg)","Week 4",4,89.5
"SYNTH-OBT2D-26","SYNTH-045","WEIGHT","Weight (kg)","Week 8",8,89.5
"SYNTH-OBT2D-26","SYNTH-045","WEIGHT","Weight (kg)","Week 12",12,89.9
"SYNTH-OBT2D-26","SYNTH-045","WEIGHT","Weight (kg)","Week 16",16,90.1
"SYNTH-OBT2D-26","SYNTH-045","WEIGHT","Weight (kg)","Week 20",20,90
"SYNTH-OBT2D-26","SYNTH-045","WEIGHT","Weight (kg)","Week 26",26,89.9
"SYNTH-OBT2D-26","SYNTH-046","HBA1C","HbA1c (%)","Baseline",0,8.9
"SYNTH-OBT2D-26","SYNTH-046","HBA1C","HbA1c (%)","Week 4",4,8.7
"SYNTH-OBT2D-26","SYNTH-046","HBA1C","HbA1c (%)","Week 8",8,8.6
"SYNTH-OBT2D-26","SYNTH-046","HBA1C","HbA1c (%)","Week 12",12,8.4
"SYNTH-OBT2D-26","SYNTH-046","HBA1C","HbA1c (%)","Week 16",16,8.4
"SYNTH-OBT2D-26","SYNTH-046","HBA1C","HbA1c (%)","Week 20",20,8.4
"SYNTH-OBT2D-26","SYNTH-046","HBA1C","HbA1c (%)","Week 26",26,8.3
"SYNTH-OBT2D-26","SYNTH-046","HEIGHT","Height (cm)","Baseline",0,159
"SYNTH-OBT2D-26","SYNTH-046","WEIGHT","Weight (kg)","Baseline",0,87.6
"SYNTH-OBT2D-26","SYNTH-046","WEIGHT","Weight (kg)","Week 4",4,86
"SYNTH-OBT2D-26","SYNTH-046","WEIGHT","Weight (kg)","Week 8",8,85.1
"SYNTH-OBT2D-26","SYNTH-046","WEIGHT","Weight (kg)","Week 12",12,84.1
"SYNTH-OBT2D-26","SYNTH-046","WEIGHT","Weight (kg)","Week 16",16,83.4
"SYNTH-OBT2D-26","SYNTH-046","WEIGHT","Weight (kg)","Week 20",20,83.4
"SYNTH-OBT2D-26","SYNTH-046","WEIGHT","Weight (kg)","Week 26",26,82.7
"SYNTH-OBT2D-26","SYNTH-047","HBA1C","HbA1c (%)","Baseline",0,8.2
"SYNTH-OBT2D-26","SYNTH-047","HBA1C","HbA1c (%)","Week 4",4,8.1
"SYNTH-OBT2D-26","SYNTH-047","HBA1C","HbA1c (%)","Week 8",8,8
"SYNTH-OBT2D-26","SYNTH-047","HBA1C","HbA1c (%)","Week 12",12,7.9
"SYNTH-OBT2D-26","SYNTH-047","HBA1C","HbA1c (%)","Week 16",16,8
"SYNTH-OBT2D-26","SYNTH-047","HBA1C","HbA1c (%)","Week 20",20,7.8
"SYNTH-OBT2D-26","SYNTH-047","HBA1C","HbA1c (%)","Week 26",26,7.8
"SYNTH-OBT2D-26","SYNTH-047","HEIGHT","Height (cm)","Baseline",0,169
"SYNTH-OBT2D-26","SYNTH-047","WEIGHT","Weight (kg)","Baseline",0,87.9
"SYNTH-OBT2D-26","SYNTH-047","WEIGHT","Weight (kg)","Week 4",4,87
"SYNTH-OBT2D-26","SYNTH-047","WEIGHT","Weight (kg)","Week 8",8,86.7
"SYNTH-OBT2D-26","SYNTH-047","WEIGHT","Weight (kg)","Week 12",12,86.4
"SYNTH-OBT2D-26","SYNTH-047","WEIGHT","Weight (kg)","Week 16",16,85.4
"SYNTH-OBT2D-26","SYNTH-047","WEIGHT","Weight (kg)","Week 20",20,85.8
"SYNTH-OBT2D-26","SYNTH-047","WEIGHT","Weight (kg)","Week 26",26,85.5
"SYNTH-OBT2D-26","SYNTH-048","HBA1C","HbA1c (%)","Baseline",0,8.1
"SYNTH-OBT2D-26","SYNTH-048","HBA1C","HbA1c (%)","Week 4",4,7.5
"SYNTH-OBT2D-26","SYNTH-048","HBA1C","HbA1c (%)","Week 8",8,7.3
"SYNTH-OBT2D-26","SYNTH-048","HBA1C","HbA1c (%)","Week 12",12,7.2
"SYNTH-OBT2D-26","SYNTH-048","HBA1C","HbA1c (%)","Week 16",16,6.9
"SYNTH-OBT2D-26","SYNTH-048","HBA1C","HbA1c (%)","Week 20",20,6.7
"SYNTH-OBT2D-26","SYNTH-048","HBA1C","HbA1c (%)","Week 26",26,6.7
"SYNTH-OBT2D-26","SYNTH-048","HEIGHT","Height (cm)","Baseline",0,177
"SYNTH-OBT2D-26","SYNTH-048","WEIGHT","Weight (kg)","Baseline",0,97.3
"SYNTH-OBT2D-26","SYNTH-048","WEIGHT","Weight (kg)","Week 4",4,93
"SYNTH-OBT2D-26","SYNTH-048","WEIGHT","Weight (kg)","Week 8",8,89.7
"SYNTH-OBT2D-26","SYNTH-048","WEIGHT","Weight (kg)","Week 12",12,87.5
"SYNTH-OBT2D-26","SYNTH-048","WEIGHT","Weight (kg)","Week 16",16,85.5
"SYNTH-OBT2D-26","SYNTH-048","WEIGHT","Weight (kg)","Week 20",20,84.3
"SYNTH-OBT2D-26","SYNTH-048","WEIGHT","Weight (kg)","Week 26",26,83.3
"SYNTH-OBT2D-26","SYNTH-049","HBA1C","HbA1c (%)","Baseline",0,9
"SYNTH-OBT2D-26","SYNTH-049","HBA1C","HbA1c (%)","Week 4",4,8.8
"SYNTH-OBT2D-26","SYNTH-049","HBA1C","HbA1c (%)","Week 8",8,8.6
"SYNTH-OBT2D-26","SYNTH-049","HBA1C","HbA1c (%)","Week 12",12,8.5
"SYNTH-OBT2D-26","SYNTH-049","HBA1C","HbA1c (%)","Week 16",16,8.4
"SYNTH-OBT2D-26","SYNTH-049","HBA1C","HbA1c (%)","Week 20",20,8.4
"SYNTH-OBT2D-26","SYNTH-049","HBA1C","HbA1c (%)","Week 26",26,8.3
"SYNTH-OBT2D-26","SYNTH-049","HEIGHT","Height (cm)","Baseline",0,172
"SYNTH-OBT2D-26","SYNTH-049","WEIGHT","Weight (kg)","Baseline",0,131
"SYNTH-OBT2D-26","SYNTH-049","WEIGHT","Weight (kg)","Week 4",4,127.6
"SYNTH-OBT2D-26","SYNTH-049","WEIGHT","Weight (kg)","Week 8",8,125.8
"SYNTH-OBT2D-26","SYNTH-049","WEIGHT","Weight (kg)","Week 12",12,124.6
"SYNTH-OBT2D-26","SYNTH-049","WEIGHT","Weight (kg)","Week 16",16,123.4
"SYNTH-OBT2D-26","SYNTH-049","WEIGHT","Weight (kg)","Week 20",20,122.5
"SYNTH-OBT2D-26","SYNTH-049","WEIGHT","Weight (kg)","Week 26",26,121.6
"SYNTH-OBT2D-26","SYNTH-050","HBA1C","HbA1c (%)","Baseline",0,8.8
"SYNTH-OBT2D-26","SYNTH-050","HBA1C","HbA1c (%)","Week 4",4,8.4
"SYNTH-OBT2D-26","SYNTH-050","HBA1C","HbA1c (%)","Week 8",8,8.2
"SYNTH-OBT2D-26","SYNTH-050","HBA1C","HbA1c (%)","Week 12",12,8.1
"SYNTH-OBT2D-26","SYNTH-050","HBA1C","HbA1c (%)","Week 16",16,7.9
"SYNTH-OBT2D-26","SYNTH-050","HBA1C","HbA1c (%)","Week 20",20,7.8
"SYNTH-OBT2D-26","SYNTH-050","HBA1C","HbA1c (%)","Week 26",26,7.7
"SYNTH-OBT2D-26","SYNTH-050","HEIGHT","Height (cm)","Baseline",0,188
"SYNTH-OBT2D-26","SYNTH-050","WEIGHT","Weight (kg)","Baseline",0,120.6
"SYNTH-OBT2D-26","SYNTH-050","WEIGHT","Weight (kg)","Week 4",4,116.5
"SYNTH-OBT2D-26","SYNTH-050","WEIGHT","Weight (kg)","Week 8",8,113.2
"SYNTH-OBT2D-26","SYNTH-050","WEIGHT","Weight (kg)","Week 12",12,110.8
"SYNTH-OBT2D-26","SYNTH-050","WEIGHT","Weight (kg)","Week 16",16,108.7
"SYNTH-OBT2D-26","SYNTH-050","WEIGHT","Weight (kg)","Week 20",20,107.9
"SYNTH-OBT2D-26","SYNTH-050","WEIGHT","Weight (kg)","Week 26",26,107
"SYNTH-OBT2D-26","SYNTH-051","HBA1C","HbA1c (%)","Baseline",0,8.6
"SYNTH-OBT2D-26","SYNTH-051","HBA1C","HbA1c (%)","Week 4",4,8.2
"SYNTH-OBT2D-26","SYNTH-051","HBA1C","HbA1c (%)","Week 8",8,7.7
"SYNTH-OBT2D-26","SYNTH-051","HBA1C","HbA1c (%)","Week 12",12,7.5
"SYNTH-OBT2D-26","SYNTH-051","HBA1C","HbA1c (%)","Week 16",16,7.3
"SYNTH-OBT2D-26","SYNTH-051","HBA1C","HbA1c (%)","Week 20",20,7.2
"SYNTH-OBT2D-26","SYNTH-051","HBA1C","HbA1c (%)","Week 26",26,7
"SYNTH-OBT2D-26","SYNTH-051","HEIGHT","Height (cm)","Baseline",0,163
"SYNTH-OBT2D-26","SYNTH-051","WEIGHT","Weight (kg)","Baseline",0,84.2
"SYNTH-OBT2D-26","SYNTH-051","WEIGHT","Weight (kg)","Week 4",4,80.1
"SYNTH-OBT2D-26","SYNTH-051","WEIGHT","Weight (kg)","Week 8",8,76.8
"SYNTH-OBT2D-26","SYNTH-051","WEIGHT","Weight (kg)","Week 12",12,75.1
"SYNTH-OBT2D-26","SYNTH-051","WEIGHT","Weight (kg)","Week 16",16,73.6
"SYNTH-OBT2D-26","SYNTH-051","WEIGHT","Weight (kg)","Week 20",20,72.5
"SYNTH-OBT2D-26","SYNTH-051","WEIGHT","Weight (kg)","Week 26",26,71.5
"SYNTH-OBT2D-26","SYNTH-052","HBA1C","HbA1c (%)","Baseline",0,7.8
"SYNTH-OBT2D-26","SYNTH-052","HBA1C","HbA1c (%)","Week 4",4,7.6
"SYNTH-OBT2D-26","SYNTH-052","HBA1C","HbA1c (%)","Week 8",8,7.4
"SYNTH-OBT2D-26","SYNTH-052","HBA1C","HbA1c (%)","Week 12",12,7.4
"SYNTH-OBT2D-26","SYNTH-052","HBA1C","HbA1c (%)","Week 16",16,7.3
"SYNTH-OBT2D-26","SYNTH-052","HBA1C","HbA1c (%)","Week 20",20,7.2
"SYNTH-OBT2D-26","SYNTH-052","HBA1C","HbA1c (%)","Week 26",26,7.2
"SYNTH-OBT2D-26","SYNTH-052","HEIGHT","Height (cm)","Baseline",0,152
"SYNTH-OBT2D-26","SYNTH-052","WEIGHT","Weight (kg)","Baseline",0,77
"SYNTH-OBT2D-26","SYNTH-052","WEIGHT","Weight (kg)","Week 4",4,76
"SYNTH-OBT2D-26","SYNTH-052","WEIGHT","Weight (kg)","Week 8",8,74.7
"SYNTH-OBT2D-26","SYNTH-052","WEIGHT","Weight (kg)","Week 12",12,73.6
"SYNTH-OBT2D-26","SYNTH-052","WEIGHT","Weight (kg)","Week 16",16,73.7
"SYNTH-OBT2D-26","SYNTH-052","WEIGHT","Weight (kg)","Week 20",20,73.3
"SYNTH-OBT2D-26","SYNTH-052","WEIGHT","Weight (kg)","Week 26",26,72.8
"SYNTH-OBT2D-26","SYNTH-053","HBA1C","HbA1c (%)","Baseline",0,8.2
"SYNTH-OBT2D-26","SYNTH-053","HBA1C","HbA1c (%)","Week 4",4,7.7
"SYNTH-OBT2D-26","SYNTH-053","HBA1C","HbA1c (%)","Week 8",8,7.5
"SYNTH-OBT2D-26","SYNTH-053","HBA1C","HbA1c (%)","Week 12",12,7
"SYNTH-OBT2D-26","SYNTH-053","HBA1C","HbA1c (%)","Week 16",16,7
"SYNTH-OBT2D-26","SYNTH-053","HBA1C","HbA1c (%)","Week 20",20,6.8
"SYNTH-OBT2D-26","SYNTH-053","HBA1C","HbA1c (%)","Week 26",26,6.7
"SYNTH-OBT2D-26","SYNTH-053","HEIGHT","Height (cm)","Baseline",0,169
"SYNTH-OBT2D-26","SYNTH-053","WEIGHT","Weight (kg)","Baseline",0,94.8
"SYNTH-OBT2D-26","SYNTH-053","WEIGHT","Weight (kg)","Week 4",4,90.5
"SYNTH-OBT2D-26","SYNTH-053","WEIGHT","Weight (kg)","Week 8",8,87.5
"SYNTH-OBT2D-26","SYNTH-053","WEIGHT","Weight (kg)","Week 12",12,85.6
"SYNTH-OBT2D-26","SYNTH-053","WEIGHT","Weight (kg)","Week 16",16,84.1
"SYNTH-OBT2D-26","SYNTH-053","WEIGHT","Weight (kg)","Week 20",20,83.1
"SYNTH-OBT2D-26","SYNTH-053","WEIGHT","Weight (kg)","Week 26",26,82
"SYNTH-OBT2D-26","SYNTH-054","HBA1C","HbA1c (%)","Baseline",0,8.9
"SYNTH-OBT2D-26","SYNTH-054","HBA1C","HbA1c (%)","Week 4",4,8.8
"SYNTH-OBT2D-26","SYNTH-054","HBA1C","HbA1c (%)","Week 8",8,8.5
"SYNTH-OBT2D-26","SYNTH-054","HBA1C","HbA1c (%)","Week 12",12,8.4
"SYNTH-OBT2D-26","SYNTH-054","HBA1C","HbA1c (%)","Week 16",16,8.4
"SYNTH-OBT2D-26","SYNTH-054","HBA1C","HbA1c (%)","Week 20",20,8.3
"SYNTH-OBT2D-26","SYNTH-054","HBA1C","HbA1c (%)","Week 26",26,8.3
"SYNTH-OBT2D-26","SYNTH-054","HEIGHT","Height (cm)","Baseline",0,160
"SYNTH-OBT2D-26","SYNTH-054","WEIGHT","Weight (kg)","Baseline",0,80.8
"SYNTH-OBT2D-26","SYNTH-054","WEIGHT","Weight (kg)","Week 4",4,79.5
"SYNTH-OBT2D-26","SYNTH-054","WEIGHT","Weight (kg)","Week 8",8,78.4
"SYNTH-OBT2D-26","SYNTH-054","WEIGHT","Weight (kg)","Week 12",12,77.6
"SYNTH-OBT2D-26","SYNTH-054","WEIGHT","Weight (kg)","Week 16",16,77.4
"SYNTH-OBT2D-26","SYNTH-054","WEIGHT","Weight (kg)","Week 20",20,77
"SYNTH-OBT2D-26","SYNTH-054","WEIGHT","Weight (kg)","Week 26",26,76.7
"SYNTH-OBT2D-26","SYNTH-055","HBA1C","HbA1c (%)","Baseline",0,8.1
"SYNTH-OBT2D-26","SYNTH-055","HBA1C","HbA1c (%)","Week 4",4,8.2
"SYNTH-OBT2D-26","SYNTH-055","HBA1C","HbA1c (%)","Week 8",8,8.2
"SYNTH-OBT2D-26","SYNTH-055","HBA1C","HbA1c (%)","Week 12",12,8.4
"SYNTH-OBT2D-26","SYNTH-055","HBA1C","HbA1c (%)","Week 16",16,8.4
"SYNTH-OBT2D-26","SYNTH-055","HBA1C","HbA1c (%)","Week 20",20,8.5
"SYNTH-OBT2D-26","SYNTH-055","HBA1C","HbA1c (%)","Week 26",26,8.5
"SYNTH-OBT2D-26","SYNTH-055","HEIGHT","Height (cm)","Baseline",0,165
"SYNTH-OBT2D-26","SYNTH-055","WEIGHT","Weight (kg)","Baseline",0,111.1
"SYNTH-OBT2D-26","SYNTH-055","WEIGHT","Weight (kg)","Week 4",4,112.4
"SYNTH-OBT2D-26","SYNTH-055","WEIGHT","Weight (kg)","Week 8",8,113
"SYNTH-OBT2D-26","SYNTH-055","WEIGHT","Weight (kg)","Week 12",12,113.2
"SYNTH-OBT2D-26","SYNTH-055","WEIGHT","Weight (kg)","Week 16",16,113.5
"SYNTH-OBT2D-26","SYNTH-055","WEIGHT","Weight (kg)","Week 20",20,113.9
"SYNTH-OBT2D-26","SYNTH-055","WEIGHT","Weight (kg)","Week 26",26,114.1
"SYNTH-OBT2D-26","SYNTH-056","HBA1C","HbA1c (%)","Baseline",0,8.1
"SYNTH-OBT2D-26","SYNTH-056","HBA1C","HbA1c (%)","Week 4",4,8
"SYNTH-OBT2D-26","SYNTH-056","HBA1C","HbA1c (%)","Week 8",8,8
"SYNTH-OBT2D-26","SYNTH-056","HBA1C","HbA1c (%)","Week 12",12,8
"SYNTH-OBT2D-26","SYNTH-056","HBA1C","HbA1c (%)","Week 16",16,7.9
"SYNTH-OBT2D-26","SYNTH-056","HBA1C","HbA1c (%)","Week 20",20,7.9
"SYNTH-OBT2D-26","SYNTH-056","HBA1C","HbA1c (%)","Week 26",26,7.9
"SYNTH-OBT2D-26","SYNTH-056","HEIGHT","Height (cm)","Baseline",0,177
"SYNTH-OBT2D-26","SYNTH-056","WEIGHT","Weight (kg)","Baseline",0,89.4
"SYNTH-OBT2D-26","SYNTH-056","WEIGHT","Weight (kg)","Week 4",4,88.2
"SYNTH-OBT2D-26","SYNTH-056","WEIGHT","Weight (kg)","Week 8",8,88.4
"SYNTH-OBT2D-26","SYNTH-056","WEIGHT","Weight (kg)","Week 12",12,87.7
"SYNTH-OBT2D-26","SYNTH-056","WEIGHT","Weight (kg)","Week 16",16,87.6
"SYNTH-OBT2D-26","SYNTH-056","WEIGHT","Weight (kg)","Week 20",20,87.1
"SYNTH-OBT2D-26","SYNTH-056","WEIGHT","Weight (kg)","Week 26",26,87.1
"SYNTH-OBT2D-26","SYNTH-057","HBA1C","HbA1c (%)","Baseline",0,7.9
"SYNTH-OBT2D-26","SYNTH-057","HBA1C","HbA1c (%)","Week 4",4,7.8
"SYNTH-OBT2D-26","SYNTH-057","HBA1C","HbA1c (%)","Week 8",8,7.6
"SYNTH-OBT2D-26","SYNTH-057","HBA1C","HbA1c (%)","Week 12",12,7.5
"SYNTH-OBT2D-26","SYNTH-057","HBA1C","HbA1c (%)","Week 16",16,7.5
"SYNTH-OBT2D-26","SYNTH-057","HBA1C","HbA1c (%)","Week 20",20,7.5
"SYNTH-OBT2D-26","SYNTH-057","HBA1C","HbA1c (%)","Week 26",26,7.4
"SYNTH-OBT2D-26","SYNTH-057","HEIGHT","Height (cm)","Baseline",0,163
"SYNTH-OBT2D-26","SYNTH-057","WEIGHT","Weight (kg)","Baseline",0,83.3
"SYNTH-OBT2D-26","SYNTH-057","WEIGHT","Weight (kg)","Week 4",4,82
"SYNTH-OBT2D-26","SYNTH-057","WEIGHT","Weight (kg)","Week 8",8,81.3
"SYNTH-OBT2D-26","SYNTH-057","WEIGHT","Weight (kg)","Week 12",12,80.6
"SYNTH-OBT2D-26","SYNTH-057","WEIGHT","Weight (kg)","Week 16",16,79.8
"SYNTH-OBT2D-26","SYNTH-057","WEIGHT","Weight (kg)","Week 20",20,79.6
"SYNTH-OBT2D-26","SYNTH-057","WEIGHT","Weight (kg)","Week 26",26,79.3
"SYNTH-OBT2D-26","SYNTH-058","HBA1C","HbA1c (%)","Baseline",0,7.9
"SYNTH-OBT2D-26","SYNTH-058","HBA1C","HbA1c (%)","Week 4",4,7.7
"SYNTH-OBT2D-26","SYNTH-058","HBA1C","HbA1c (%)","Week 8",8,7.7
"SYNTH-OBT2D-26","SYNTH-058","HBA1C","HbA1c (%)","Week 12",12,7.5
"SYNTH-OBT2D-26","SYNTH-058","HBA1C","HbA1c (%)","Week 16",16,7.6
"SYNTH-OBT2D-26","SYNTH-058","HBA1C","HbA1c (%)","Week 20",20,7.5
"SYNTH-OBT2D-26","SYNTH-058","HBA1C","HbA1c (%)","Week 26",26,7.5
"SYNTH-OBT2D-26","SYNTH-058","HEIGHT","Height (cm)","Baseline",0,176
"SYNTH-OBT2D-26","SYNTH-058","WEIGHT","Weight (kg)","Baseline",0,100.2
"SYNTH-OBT2D-26","SYNTH-058","WEIGHT","Weight (kg)","Week 4",4,99.4
"SYNTH-OBT2D-26","SYNTH-058","WEIGHT","Weight (kg)","Week 8",8,98.8
"SYNTH-OBT2D-26","SYNTH-058","WEIGHT","Weight (kg)","Week 12",12,98.5
"SYNTH-OBT2D-26","SYNTH-058","WEIGHT","Weight (kg)","Week 16",16,98.1
"SYNTH-OBT2D-26","SYNTH-058","WEIGHT","Weight (kg)","Week 20",20,98.1
"SYNTH-OBT2D-26","SYNTH-058","WEIGHT","Weight (kg)","Week 26",26,97.9
"SYNTH-OBT2D-26","SYNTH-059","HBA1C","HbA1c (%)","Baseline",0,7.2
"SYNTH-OBT2D-26","SYNTH-059","HBA1C","HbA1c (%)","Week 4",4,6.8
"SYNTH-OBT2D-26","SYNTH-059","HBA1C","HbA1c (%)","Week 8",8,6.9
"SYNTH-OBT2D-26","SYNTH-059","HBA1C","HbA1c (%)","Week 12",12,6.6
"SYNTH-OBT2D-26","SYNTH-059","HBA1C","HbA1c (%)","Week 16",16,6.4
"SYNTH-OBT2D-26","SYNTH-059","HBA1C","HbA1c (%)","Week 20",20,6.5
"SYNTH-OBT2D-26","SYNTH-059","HBA1C","HbA1c (%)","Week 26",26,6.4
"SYNTH-OBT2D-26","SYNTH-059","HEIGHT","Height (cm)","Baseline",0,161
"SYNTH-OBT2D-26","SYNTH-059","WEIGHT","Weight (kg)","Baseline",0,76.2
"SYNTH-OBT2D-26","SYNTH-059","WEIGHT","Weight (kg)","Week 4",4,74.4
"SYNTH-OBT2D-26","SYNTH-059","WEIGHT","Weight (kg)","Week 8",8,72.7
"SYNTH-OBT2D-26","SYNTH-059","WEIGHT","Weight (kg)","Week 12",12,72.1
"SYNTH-OBT2D-26","SYNTH-059","WEIGHT","Weight (kg)","Week 16",16,71.3
"SYNTH-OBT2D-26","SYNTH-059","WEIGHT","Weight (kg)","Week 20",20,70.7
"SYNTH-OBT2D-26","SYNTH-059","WEIGHT","Weight (kg)","Week 26",26,70.3
"SYNTH-OBT2D-26","SYNTH-060","HBA1C","HbA1c (%)","Baseline",0,8.3
"SYNTH-OBT2D-26","SYNTH-060","HBA1C","HbA1c (%)","Week 4",4,8.1
"SYNTH-OBT2D-26","SYNTH-060","HBA1C","HbA1c (%)","Week 8",8,8.1
"SYNTH-OBT2D-26","SYNTH-060","HBA1C","HbA1c (%)","Week 12",12,8.1
"SYNTH-OBT2D-26","SYNTH-060","HBA1C","HbA1c (%)","Week 16",16,8
"SYNTH-OBT2D-26","SYNTH-060","HBA1C","HbA1c (%)","Week 20",20,8
"SYNTH-OBT2D-26","SYNTH-060","HBA1C","HbA1c (%)","Week 26",26,8
"SYNTH-OBT2D-26","SYNTH-060","HEIGHT","Height (cm)","Baseline",0,152
"SYNTH-OBT2D-26","SYNTH-060","WEIGHT","Weight (kg)","Baseline",0,99.3
"SYNTH-OBT2D-26","SYNTH-060","WEIGHT","Weight (kg)","Week 4",4,98.7
"SYNTH-OBT2D-26","SYNTH-060","WEIGHT","Weight (kg)","Week 8",8,97.6
"SYNTH-OBT2D-26","SYNTH-060","WEIGHT","Weight (kg)","Week 12",12,97
"SYNTH-OBT2D-26","SYNTH-060","WEIGHT","Weight (kg)","Week 16",16,96.7
"SYNTH-OBT2D-26","SYNTH-060","WEIGHT","Weight (kg)","Week 20",20,96.6
"SYNTH-OBT2D-26","SYNTH-060","WEIGHT","Weight (kg)","Week 26",26,96.1
"SYNTH-OBT2D-26","SYNTH-061","HBA1C","HbA1c (%)","Baseline",0,9
"SYNTH-OBT2D-26","SYNTH-061","HBA1C","HbA1c (%)","Week 4",4,8.8
"SYNTH-OBT2D-26","SYNTH-061","HBA1C","HbA1c (%)","Week 8",8,8.8
"SYNTH-OBT2D-26","SYNTH-061","HBA1C","HbA1c (%)","Week 12",12,8.7
"SYNTH-OBT2D-26","SYNTH-061","HBA1C","HbA1c (%)","Week 16",16,8.7
"SYNTH-OBT2D-26","SYNTH-061","HBA1C","HbA1c (%)","Week 20",20,8.7
"SYNTH-OBT2D-26","SYNTH-061","HBA1C","HbA1c (%)","Week 26",26,8.7
"SYNTH-OBT2D-26","SYNTH-061","HEIGHT","Height (cm)","Baseline",0,168
"SYNTH-OBT2D-26","SYNTH-061","WEIGHT","Weight (kg)","Baseline",0,95.1
"SYNTH-OBT2D-26","SYNTH-061","WEIGHT","Weight (kg)","Week 4",4,94.7
"SYNTH-OBT2D-26","SYNTH-061","WEIGHT","Weight (kg)","Week 8",8,93.8
"SYNTH-OBT2D-26","SYNTH-061","WEIGHT","Weight (kg)","Week 12",12,94.6
"SYNTH-OBT2D-26","SYNTH-061","WEIGHT","Weight (kg)","Week 16",16,94
"SYNTH-OBT2D-26","SYNTH-061","WEIGHT","Weight (kg)","Week 20",20,93.9
"SYNTH-OBT2D-26","SYNTH-061","WEIGHT","Weight (kg)","Week 26",26,93.6
"SYNTH-OBT2D-26","SYNTH-062","HBA1C","HbA1c (%)","Baseline",0,8.4
"SYNTH-OBT2D-26","SYNTH-062","HBA1C","HbA1c (%)","Week 4",4,8.3
"SYNTH-OBT2D-26","SYNTH-062","HBA1C","HbA1c (%)","Week 8",8,8
"SYNTH-OBT2D-26","SYNTH-062","HBA1C","HbA1c (%)","Week 12",12,7.9
"SYNTH-OBT2D-26","SYNTH-062","HBA1C","HbA1c (%)","Week 16",16,7.7
"SYNTH-OBT2D-26","SYNTH-062","HBA1C","HbA1c (%)","Week 20",20,7.7
"SYNTH-OBT2D-26","SYNTH-062","HBA1C","HbA1c (%)","Week 26",26,7.7
"SYNTH-OBT2D-26","SYNTH-062","HEIGHT","Height (cm)","Baseline",0,173
"SYNTH-OBT2D-26","SYNTH-062","WEIGHT","Weight (kg)","Baseline",0,85.1
"SYNTH-OBT2D-26","SYNTH-062","WEIGHT","Weight (kg)","Week 4",4,83.3
"SYNTH-OBT2D-26","SYNTH-062","WEIGHT","Weight (kg)","Week 8",8,82.2
"SYNTH-OBT2D-26","SYNTH-062","WEIGHT","Weight (kg)","Week 12",12,81.4
"SYNTH-OBT2D-26","SYNTH-062","WEIGHT","Weight (kg)","Week 16",16,80.9
"SYNTH-OBT2D-26","SYNTH-062","WEIGHT","Weight (kg)","Week 20",20,80.3
"SYNTH-OBT2D-26","SYNTH-062","WEIGHT","Weight (kg)","Week 26",26,79.8
"SYNTH-OBT2D-26","SYNTH-063","HBA1C","HbA1c (%)","Baseline",0,8.8
"SYNTH-OBT2D-26","SYNTH-063","HBA1C","HbA1c (%)","Week 4",4,8.9
"SYNTH-OBT2D-26","SYNTH-063","HBA1C","HbA1c (%)","Week 8",8,9
"SYNTH-OBT2D-26","SYNTH-063","HBA1C","HbA1c (%)","Week 12",12,9
"SYNTH-OBT2D-26","SYNTH-063","HBA1C","HbA1c (%)","Week 16",16,9.1
"SYNTH-OBT2D-26","SYNTH-063","HBA1C","HbA1c (%)","Week 20",20,9
"SYNTH-OBT2D-26","SYNTH-063","HBA1C","HbA1c (%)","Week 26",26,9.1
"SYNTH-OBT2D-26","SYNTH-063","HEIGHT","Height (cm)","Baseline",0,163
"SYNTH-OBT2D-26","SYNTH-063","WEIGHT","Weight (kg)","Baseline",0,81.9
"SYNTH-OBT2D-26","SYNTH-063","WEIGHT","Weight (kg)","Week 4",4,82.2
"SYNTH-OBT2D-26","SYNTH-063","WEIGHT","Weight (kg)","Week 8",8,82.1
"SYNTH-OBT2D-26","SYNTH-063","WEIGHT","Weight (kg)","Week 12",12,82.1
"SYNTH-OBT2D-26","SYNTH-063","WEIGHT","Weight (kg)","Week 16",16,82.2
"SYNTH-OBT2D-26","SYNTH-063","WEIGHT","Weight (kg)","Week 20",20,82.2
"SYNTH-OBT2D-26","SYNTH-063","WEIGHT","Weight (kg)","Week 26",26,82.3
"SYNTH-OBT2D-26","SYNTH-064","HBA1C","HbA1c (%)","Baseline",0,7.6
"SYNTH-OBT2D-26","SYNTH-064","HBA1C","HbA1c (%)","Week 4",4,7.2
"SYNTH-OBT2D-26","SYNTH-064","HBA1C","HbA1c (%)","Week 8",8,6.9
"SYNTH-OBT2D-26","SYNTH-064","HBA1C","HbA1c (%)","Week 12",12,6.7
"SYNTH-OBT2D-26","SYNTH-064","HBA1C","HbA1c (%)","Week 16",16,6.7
"SYNTH-OBT2D-26","SYNTH-064","HBA1C","HbA1c (%)","Week 20",20,6.5
"SYNTH-OBT2D-26","SYNTH-064","HBA1C","HbA1c (%)","Week 26",26,6.4
"SYNTH-OBT2D-26","SYNTH-064","HEIGHT","Height (cm)","Baseline",0,164
"SYNTH-OBT2D-26","SYNTH-064","WEIGHT","Weight (kg)","Baseline",0,120.5
"SYNTH-OBT2D-26","SYNTH-064","WEIGHT","Weight (kg)","Week 4",4,115.3
"SYNTH-OBT2D-26","SYNTH-064","WEIGHT","Weight (kg)","Week 8",8,110.4
"SYNTH-OBT2D-26","SYNTH-064","WEIGHT","Weight (kg)","Week 12",12,109.3
"SYNTH-OBT2D-26","SYNTH-064","WEIGHT","Weight (kg)","Week 16",16,107.4
"SYNTH-OBT2D-26","SYNTH-064","WEIGHT","Weight (kg)","Week 20",20,105.8
"SYNTH-OBT2D-26","SYNTH-064","WEIGHT","Weight (kg)","Week 26",26,104.4
"SYNTH-OBT2D-26","SYNTH-065","HBA1C","HbA1c (%)","Baseline",0,9.2
"SYNTH-OBT2D-26","SYNTH-065","HBA1C","HbA1c (%)","Week 4",4,8.9
"SYNTH-OBT2D-26","SYNTH-065","HBA1C","HbA1c (%)","Week 8",8,8.6
"SYNTH-OBT2D-26","SYNTH-065","HBA1C","HbA1c (%)","Week 12",12,8.5
"SYNTH-OBT2D-26","SYNTH-065","HBA1C","HbA1c (%)","Week 16",16,8.5
"SYNTH-OBT2D-26","SYNTH-065","HBA1C","HbA1c (%)","Week 20",20,8.3
"SYNTH-OBT2D-26","SYNTH-065","HBA1C","HbA1c (%)","Week 26",26,8.2
"SYNTH-OBT2D-26","SYNTH-065","HEIGHT","Height (cm)","Baseline",0,168
"SYNTH-OBT2D-26","SYNTH-065","WEIGHT","Weight (kg)","Baseline",0,90.1
"SYNTH-OBT2D-26","SYNTH-065","WEIGHT","Weight (kg)","Week 4",4,88
"SYNTH-OBT2D-26","SYNTH-065","WEIGHT","Weight (kg)","Week 8",8,85.8
"SYNTH-OBT2D-26","SYNTH-065","WEIGHT","Weight (kg)","Week 12",12,85.3
"SYNTH-OBT2D-26","SYNTH-065","WEIGHT","Weight (kg)","Week 16",16,84.4
"SYNTH-OBT2D-26","SYNTH-065","WEIGHT","Weight (kg)","Week 20",20,83.4
"SYNTH-OBT2D-26","SYNTH-065","WEIGHT","Weight (kg)","Week 26",26,83.1
"SYNTH-OBT2D-26","SYNTH-066","HBA1C","HbA1c (%)","Baseline",0,8.3
"SYNTH-OBT2D-26","SYNTH-066","HBA1C","HbA1c (%)","Week 4",4,7.8
"SYNTH-OBT2D-26","SYNTH-066","HBA1C","HbA1c (%)","Week 8",8,7.5
"SYNTH-OBT2D-26","SYNTH-066","HBA1C","HbA1c (%)","Week 12",12,7.3
"SYNTH-OBT2D-26","SYNTH-066","HBA1C","HbA1c (%)","Week 16",16,7.1
"SYNTH-OBT2D-26","SYNTH-066","HBA1C","HbA1c (%)","Week 20",20,7
"SYNTH-OBT2D-26","SYNTH-066","HBA1C","HbA1c (%)","Week 26",26,6.9
"SYNTH-OBT2D-26","SYNTH-066","HEIGHT","Height (cm)","Baseline",0,177
"SYNTH-OBT2D-26","SYNTH-066","WEIGHT","Weight (kg)","Baseline",0,86.8
"SYNTH-OBT2D-26","SYNTH-066","WEIGHT","Weight (kg)","Week 4",4,82.2
"SYNTH-OBT2D-26","SYNTH-066","WEIGHT","Weight (kg)","Week 8",8,79.3
"SYNTH-OBT2D-26","SYNTH-066","WEIGHT","Weight (kg)","Week 12",12,76.9
"SYNTH-OBT2D-26","SYNTH-066","WEIGHT","Weight (kg)","Week 16",16,75.6
"SYNTH-OBT2D-26","SYNTH-066","WEIGHT","Weight (kg)","Week 20",20,74.6
"SYNTH-OBT2D-26","SYNTH-066","WEIGHT","Weight (kg)","Week 26",26,73.3
"SYNTH-OBT2D-26","SYNTH-067","HBA1C","HbA1c (%)","Baseline",0,7.4
"SYNTH-OBT2D-26","SYNTH-067","HBA1C","HbA1c (%)","Week 4",4,7
"SYNTH-OBT2D-26","SYNTH-067","HBA1C","HbA1c (%)","Week 8",8,6.8
"SYNTH-OBT2D-26","SYNTH-067","HBA1C","HbA1c (%)","Week 12",12,6.5
"SYNTH-OBT2D-26","SYNTH-067","HBA1C","HbA1c (%)","Week 16",16,6.4
"SYNTH-OBT2D-26","SYNTH-067","HBA1C","HbA1c (%)","Week 20",20,6.2
"SYNTH-OBT2D-26","SYNTH-067","HBA1C","HbA1c (%)","Week 26",26,6.1
"SYNTH-OBT2D-26","SYNTH-067","HEIGHT","Height (cm)","Baseline",0,179
"SYNTH-OBT2D-26","SYNTH-067","WEIGHT","Weight (kg)","Baseline",0,108
"SYNTH-OBT2D-26","SYNTH-067","WEIGHT","Weight (kg)","Week 4",4,104.1
"SYNTH-OBT2D-26","SYNTH-067","WEIGHT","Weight (kg)","Week 8",8,101.5
"SYNTH-OBT2D-26","SYNTH-067","WEIGHT","Weight (kg)","Week 12",12,99.6
"SYNTH-OBT2D-26","SYNTH-067","WEIGHT","Weight (kg)","Week 16",16,98.7
"SYNTH-OBT2D-26","SYNTH-067","WEIGHT","Weight (kg)","Week 20",20,97.7
"SYNTH-OBT2D-26","SYNTH-067","WEIGHT","Weight (kg)","Week 26",26,96.4
"SYNTH-OBT2D-26","SYNTH-068","HBA1C","HbA1c (%)","Baseline",0,7.6
"SYNTH-OBT2D-26","SYNTH-068","HBA1C","HbA1c (%)","Week 4",4,7.6
"SYNTH-OBT2D-26","SYNTH-068","HBA1C","HbA1c (%)","Week 8",8,7.5
"SYNTH-OBT2D-26","SYNTH-068","HBA1C","HbA1c (%)","Week 12",12,7.5
"SYNTH-OBT2D-26","SYNTH-068","HBA1C","HbA1c (%)","Week 16",16,7.5
"SYNTH-OBT2D-26","SYNTH-068","HBA1C","HbA1c (%)","Week 20",20,7.5
"SYNTH-OBT2D-26","SYNTH-068","HBA1C","HbA1c (%)","Week 26",26,7.5
"SYNTH-OBT2D-26","SYNTH-068","HEIGHT","Height (cm)","Baseline",0,153
"SYNTH-OBT2D-26","SYNTH-068","WEIGHT","Weight (kg)","Baseline",0,73.1
"SYNTH-OBT2D-26","SYNTH-068","WEIGHT","Weight (kg)","Week 4",4,72.3
"SYNTH-OBT2D-26","SYNTH-068","WEIGHT","Weight (kg)","Week 8",8,72.1
"SYNTH-OBT2D-26","SYNTH-068","WEIGHT","Weight (kg)","Week 12",12,71.6
"SYNTH-OBT2D-26","SYNTH-068","WEIGHT","Weight (kg)","Week 16",16,71.9
"SYNTH-OBT2D-26","SYNTH-068","WEIGHT","Weight (kg)","Week 20",20,71.8
"SYNTH-OBT2D-26","SYNTH-068","WEIGHT","Weight (kg)","Week 26",26,71.2
"SYNTH-OBT2D-26","SYNTH-069","HBA1C","HbA1c (%)","Baseline",0,7.2
"SYNTH-OBT2D-26","SYNTH-069","HBA1C","HbA1c (%)","Week 4",4,7
"SYNTH-OBT2D-26","SYNTH-069","HBA1C","HbA1c (%)","Week 8",8,6.9
"SYNTH-OBT2D-26","SYNTH-069","HBA1C","HbA1c (%)","Week 12",12,6.8
"SYNTH-OBT2D-26","SYNTH-069","HBA1C","HbA1c (%)","Week 16",16,6.8
"SYNTH-OBT2D-26","SYNTH-069","HBA1C","HbA1c (%)","Week 20",20,6.7
"SYNTH-OBT2D-26","SYNTH-069","HBA1C","HbA1c (%)","Week 26",26,6.6
"SYNTH-OBT2D-26","SYNTH-069","HEIGHT","Height (cm)","Baseline",0,163
"SYNTH-OBT2D-26","SYNTH-069","WEIGHT","Weight (kg)","Baseline",0,82.6
"SYNTH-OBT2D-26","SYNTH-069","WEIGHT","Weight (kg)","Week 4",4,80
"SYNTH-OBT2D-26","SYNTH-069","WEIGHT","Weight (kg)","Week 8",8,79.1
"SYNTH-OBT2D-26","SYNTH-069","WEIGHT","Weight (kg)","Week 12",12,77.8
"SYNTH-OBT2D-26","SYNTH-069","WEIGHT","Weight (kg)","Week 16",16,77.2
"SYNTH-OBT2D-26","SYNTH-069","WEIGHT","Weight (kg)","Week 20",20,76.7
"SYNTH-OBT2D-26","SYNTH-069","WEIGHT","Weight (kg)","Week 26",26,76.2
"SYNTH-OBT2D-26","SYNTH-070","HBA1C","HbA1c (%)","Baseline",0,7.7
"SYNTH-OBT2D-26","SYNTH-070","HBA1C","HbA1c (%)","Week 4",4,7.5
"SYNTH-OBT2D-26","SYNTH-070","HBA1C","HbA1c (%)","Week 8",8,7.5
"SYNTH-OBT2D-26","SYNTH-070","HBA1C","HbA1c (%)","Week 12",12,7.4
"SYNTH-OBT2D-26","SYNTH-070","HBA1C","HbA1c (%)","Week 16",16,7.5
"SYNTH-OBT2D-26","SYNTH-070","HBA1C","HbA1c (%)","Week 20",20,7.3
"SYNTH-OBT2D-26","SYNTH-070","HBA1C","HbA1c (%)","Week 26",26,7.3
"SYNTH-OBT2D-26","SYNTH-070","HEIGHT","Height (cm)","Baseline",0,173
"SYNTH-OBT2D-26","SYNTH-070","WEIGHT","Weight (kg)","Baseline",0,83.8
"SYNTH-OBT2D-26","SYNTH-070","WEIGHT","Weight (kg)","Week 4",4,83.2
"SYNTH-OBT2D-26","SYNTH-070","WEIGHT","Weight (kg)","Week 8",8,82.8
"SYNTH-OBT2D-26","SYNTH-070","WEIGHT","Weight (kg)","Week 12",12,82.7
"SYNTH-OBT2D-26","SYNTH-070","WEIGHT","Weight (kg)","Week 16",16,82.3
"SYNTH-OBT2D-26","SYNTH-070","WEIGHT","Weight (kg)","Week 20",20,82.4
"SYNTH-OBT2D-26","SYNTH-070","WEIGHT","Weight (kg)","Week 26",26,82
"SYNTH-OBT2D-26","SYNTH-071","HBA1C","HbA1c (%)","Baseline",0,8.4
"SYNTH-OBT2D-26","SYNTH-071","HBA1C","HbA1c (%)","Week 4",4,8.2
"SYNTH-OBT2D-26","SYNTH-071","HBA1C","HbA1c (%)","Week 8",8,8.2
"SYNTH-OBT2D-26","SYNTH-071","HBA1C","HbA1c (%)","Week 12",12,8.2
"SYNTH-OBT2D-26","SYNTH-071","HBA1C","HbA1c (%)","Week 16",16,8
"SYNTH-OBT2D-26","SYNTH-071","HBA1C","HbA1c (%)","Week 20",20,7.9
"SYNTH-OBT2D-26","SYNTH-071","HBA1C","HbA1c (%)","Week 26",26,7.9
"SYNTH-OBT2D-26","SYNTH-071","HEIGHT","Height (cm)","Baseline",0,174
"SYNTH-OBT2D-26","SYNTH-071","WEIGHT","Weight (kg)","Baseline",0,83.8
"SYNTH-OBT2D-26","SYNTH-071","WEIGHT","Weight (kg)","Week 4",4,82.6
"SYNTH-OBT2D-26","SYNTH-071","WEIGHT","Weight (kg)","Week 8",8,81.3
"SYNTH-OBT2D-26","SYNTH-071","WEIGHT","Weight (kg)","Week 12",12,80.6
"SYNTH-OBT2D-26","SYNTH-071","WEIGHT","Weight (kg)","Week 16",16,80.5
"SYNTH-OBT2D-26","SYNTH-071","WEIGHT","Weight (kg)","Week 20",20,80.1
"SYNTH-OBT2D-26","SYNTH-071","WEIGHT","Weight (kg)","Week 26",26,79.7
"SYNTH-OBT2D-26","SYNTH-072","HBA1C","HbA1c (%)","Baseline",0,7.5
"SYNTH-OBT2D-26","SYNTH-072","HBA1C","HbA1c (%)","Week 4",4,7.2
"SYNTH-OBT2D-26","SYNTH-072","HBA1C","HbA1c (%)","Week 8",8,7
"SYNTH-OBT2D-26","SYNTH-072","HBA1C","HbA1c (%)","Week 12",12,6.9
"SYNTH-OBT2D-26","SYNTH-072","HBA1C","HbA1c (%)","Week 16",16,6.7
"SYNTH-OBT2D-26","SYNTH-072","HBA1C","HbA1c (%)","Week 20",20,6.7
"SYNTH-OBT2D-26","SYNTH-072","HBA1C","HbA1c (%)","Week 26",26,6.6
"SYNTH-OBT2D-26","SYNTH-072","HEIGHT","Height (cm)","Baseline",0,184
"SYNTH-OBT2D-26","SYNTH-072","WEIGHT","Weight (kg)","Baseline",0,120
"SYNTH-OBT2D-26","SYNTH-072","WEIGHT","Weight (kg)","Week 4",4,116.2
"SYNTH-OBT2D-26","SYNTH-072","WEIGHT","Weight (kg)","Week 8",8,113.4
"SYNTH-OBT2D-26","SYNTH-072","WEIGHT","Weight (kg)","Week 12",12,111.4
"SYNTH-OBT2D-26","SYNTH-072","WEIGHT","Weight (kg)","Week 16",16,109.7
"SYNTH-OBT2D-26","SYNTH-072","WEIGHT","Weight (kg)","Week 20",20,109
"SYNTH-OBT2D-26","SYNTH-072","WEIGHT","Weight (kg)","Week 26",26,108.1
"SYNTH-OBT2D-26","SYNTH-073","HBA1C","HbA1c (%)","Baseline",0,8.9
"SYNTH-OBT2D-26","SYNTH-073","HBA1C","HbA1c (%)","Week 4",4,8.8
"SYNTH-OBT2D-26","SYNTH-073","HBA1C","HbA1c (%)","Week 8",8,8.9
"SYNTH-OBT2D-26","SYNTH-073","HBA1C","HbA1c (%)","Week 12",12,9
"SYNTH-OBT2D-26","SYNTH-073","HBA1C","HbA1c (%)","Week 16",16,9
"SYNTH-OBT2D-26","SYNTH-073","HBA1C","HbA1c (%)","Week 20",20,9.1
"SYNTH-OBT2D-26","SYNTH-073","HBA1C","HbA1c (%)","Week 26",26,9
"SYNTH-OBT2D-26","SYNTH-073","HEIGHT","Height (cm)","Baseline",0,163
"SYNTH-OBT2D-26","SYNTH-073","WEIGHT","Weight (kg)","Baseline",0,78.5
"SYNTH-OBT2D-26","SYNTH-073","WEIGHT","Weight (kg)","Week 4",4,78.7
"SYNTH-OBT2D-26","SYNTH-073","WEIGHT","Weight (kg)","Week 8",8,78.6
"SYNTH-OBT2D-26","SYNTH-073","WEIGHT","Weight (kg)","Week 12",12,78.6
"SYNTH-OBT2D-26","SYNTH-073","WEIGHT","Weight (kg)","Week 16",16,78.6
"SYNTH-OBT2D-26","SYNTH-073","WEIGHT","Weight (kg)","Week 20",20,78.4
"SYNTH-OBT2D-26","SYNTH-073","WEIGHT","Weight (kg)","Week 26",26,78.8
"SYNTH-OBT2D-26","SYNTH-074","HBA1C","HbA1c (%)","Baseline",0,8.7
"SYNTH-OBT2D-26","SYNTH-074","HBA1C","HbA1c (%)","Week 4",4,8.3
"SYNTH-OBT2D-26","SYNTH-074","HBA1C","HbA1c (%)","Week 8",8,8.1
"SYNTH-OBT2D-26","SYNTH-074","HBA1C","HbA1c (%)","Week 12",12,7.8
"SYNTH-OBT2D-26","SYNTH-074","HBA1C","HbA1c (%)","Week 16",16,7.8
"SYNTH-OBT2D-26","SYNTH-074","HBA1C","HbA1c (%)","Week 20",20,7.6
"SYNTH-OBT2D-26","SYNTH-074","HBA1C","HbA1c (%)","Week 26",26,7.5
"SYNTH-OBT2D-26","SYNTH-074","HEIGHT","Height (cm)","Baseline",0,166
"SYNTH-OBT2D-26","SYNTH-074","WEIGHT","Weight (kg)","Baseline",0,108
"SYNTH-OBT2D-26","SYNTH-074","WEIGHT","Weight (kg)","Week 4",4,103.8
"SYNTH-OBT2D-26","SYNTH-074","WEIGHT","Weight (kg)","Week 8",8,100.5
"SYNTH-OBT2D-26","SYNTH-074","WEIGHT","Weight (kg)","Week 12",12,97.7
"SYNTH-OBT2D-26","SYNTH-074","WEIGHT","Weight (kg)","Week 16",16,96.9
"SYNTH-OBT2D-26","SYNTH-074","WEIGHT","Weight (kg)","Week 20",20,95.6
"SYNTH-OBT2D-26","SYNTH-074","WEIGHT","Weight (kg)","Week 26",26,94.3
"SYNTH-OBT2D-26","SYNTH-075","HBA1C","HbA1c (%)","Baseline",0,8.4
"SYNTH-OBT2D-26","SYNTH-075","HBA1C","HbA1c (%)","Week 4",4,8.1
"SYNTH-OBT2D-26","SYNTH-075","HBA1C","HbA1c (%)","Week 8",8,7.8
"SYNTH-OBT2D-26","SYNTH-075","HBA1C","HbA1c (%)","Week 12",12,7.9
"SYNTH-OBT2D-26","SYNTH-075","HBA1C","HbA1c (%)","Week 16",16,7.6
"SYNTH-OBT2D-26","SYNTH-075","HBA1C","HbA1c (%)","Week 20",20,7.7
"SYNTH-OBT2D-26","SYNTH-075","HBA1C","HbA1c (%)","Week 26",26,7.5
"SYNTH-OBT2D-26","SYNTH-075","HEIGHT","Height (cm)","Baseline",0,165
"SYNTH-OBT2D-26","SYNTH-075","WEIGHT","Weight (kg)","Baseline",0,77.9
"SYNTH-OBT2D-26","SYNTH-075","WEIGHT","Weight (kg)","Week 4",4,75.8
"SYNTH-OBT2D-26","SYNTH-075","WEIGHT","Weight (kg)","Week 8",8,74.4
"SYNTH-OBT2D-26","SYNTH-075","WEIGHT","Weight (kg)","Week 12",12,73.4
"SYNTH-OBT2D-26","SYNTH-075","WEIGHT","Weight (kg)","Week 16",16,72.5
"SYNTH-OBT2D-26","SYNTH-075","WEIGHT","Weight (kg)","Week 20",20,71.9
"SYNTH-OBT2D-26","SYNTH-075","WEIGHT","Weight (kg)","Week 26",26,71.7
"SYNTH-OBT2D-26","SYNTH-076","HBA1C","HbA1c (%)","Baseline",0,8
"SYNTH-OBT2D-26","SYNTH-076","HBA1C","HbA1c (%)","Week 4",4,7.9
"SYNTH-OBT2D-26","SYNTH-076","HBA1C","HbA1c (%)","Week 8",8,7.9
"SYNTH-OBT2D-26","SYNTH-076","HBA1C","HbA1c (%)","Week 12",12,7.9
"SYNTH-OBT2D-26","SYNTH-076","HBA1C","HbA1c (%)","Week 16",16,7.7
"SYNTH-OBT2D-26","SYNTH-076","HBA1C","HbA1c (%)","Week 20",20,7.7
"SYNTH-OBT2D-26","SYNTH-076","HBA1C","HbA1c (%)","Week 26",26,7.7
"SYNTH-OBT2D-26","SYNTH-076","HEIGHT","Height (cm)","Baseline",0,169
"SYNTH-OBT2D-26","SYNTH-076","WEIGHT","Weight (kg)","Baseline",0,108.7
"SYNTH-OBT2D-26","SYNTH-076","WEIGHT","Weight (kg)","Week 4",4,107.7
"SYNTH-OBT2D-26","SYNTH-076","WEIGHT","Weight (kg)","Week 8",8,107.4
"SYNTH-OBT2D-26","SYNTH-076","WEIGHT","Weight (kg)","Week 12",12,107.3
"SYNTH-OBT2D-26","SYNTH-076","WEIGHT","Weight (kg)","Week 16",16,106.9
"SYNTH-OBT2D-26","SYNTH-076","WEIGHT","Weight (kg)","Week 20",20,105.9
"SYNTH-OBT2D-26","SYNTH-076","WEIGHT","Weight (kg)","Week 26",26,106.1
"SYNTH-OBT2D-26","SYNTH-077","HBA1C","HbA1c (%)","Baseline",0,8.7
"SYNTH-OBT2D-26","SYNTH-077","HBA1C","HbA1c (%)","Week 4",4,8.2
"SYNTH-OBT2D-26","SYNTH-077","HBA1C","HbA1c (%)","Week 8",8,7.9
"SYNTH-OBT2D-26","SYNTH-077","HBA1C","HbA1c (%)","Week 12",12,7.6
"SYNTH-OBT2D-26","SYNTH-077","HBA1C","HbA1c (%)","Week 16",16,7.4
"SYNTH-OBT2D-26","SYNTH-077","HBA1C","HbA1c (%)","Week 20",20,7.2
"SYNTH-OBT2D-26","SYNTH-077","HBA1C","HbA1c (%)","Week 26",26,7.1
"SYNTH-OBT2D-26","SYNTH-077","HEIGHT","Height (cm)","Baseline",0,167
"SYNTH-OBT2D-26","SYNTH-077","WEIGHT","Weight (kg)","Baseline",0,119.5
"SYNTH-OBT2D-26","SYNTH-077","WEIGHT","Weight (kg)","Week 4",4,113.2
"SYNTH-OBT2D-26","SYNTH-077","WEIGHT","Weight (kg)","Week 8",8,109.5
"SYNTH-OBT2D-26","SYNTH-077","WEIGHT","Weight (kg)","Week 12",12,106.5
"SYNTH-OBT2D-26","SYNTH-077","WEIGHT","Weight (kg)","Week 16",16,103.4
"SYNTH-OBT2D-26","SYNTH-077","WEIGHT","Weight (kg)","Week 20",20,102.2
"SYNTH-OBT2D-26","SYNTH-077","WEIGHT","Weight (kg)","Week 26",26,100.6
"SYNTH-OBT2D-26","SYNTH-078","HBA1C","HbA1c (%)","Baseline",0,8.3
"SYNTH-OBT2D-26","SYNTH-078","HBA1C","HbA1c (%)","Week 4",4,8.1
"SYNTH-OBT2D-26","SYNTH-078","HBA1C","HbA1c (%)","Week 8",8,7.8
"SYNTH-OBT2D-26","SYNTH-078","HBA1C","HbA1c (%)","Week 12",12,7.7
"SYNTH-OBT2D-26","SYNTH-078","HBA1C","HbA1c (%)","Week 16",16,7.6
"SYNTH-OBT2D-26","SYNTH-078","HBA1C","HbA1c (%)","Week 20",20,7.6
"SYNTH-OBT2D-26","SYNTH-078","HBA1C","HbA1c (%)","Week 26",26,7.5
"SYNTH-OBT2D-26","SYNTH-078","HEIGHT","Height (cm)","Baseline",0,178
"SYNTH-OBT2D-26","SYNTH-078","WEIGHT","Weight (kg)","Baseline",0,98.1
"SYNTH-OBT2D-26","SYNTH-078","WEIGHT","Weight (kg)","Week 4",4,95.1
"SYNTH-OBT2D-26","SYNTH-078","WEIGHT","Weight (kg)","Week 8",8,93.1
"SYNTH-OBT2D-26","SYNTH-078","WEIGHT","Weight (kg)","Week 12",12,91.9
"SYNTH-OBT2D-26","SYNTH-078","WEIGHT","Weight (kg)","Week 16",16,90.4
"SYNTH-OBT2D-26","SYNTH-078","WEIGHT","Weight (kg)","Week 20",20,89.9
"SYNTH-OBT2D-26","SYNTH-078","WEIGHT","Weight (kg)","Week 26",26,89.2
"SYNTH-OBT2D-26","SYNTH-079","HBA1C","HbA1c (%)","Baseline",0,8.5
"SYNTH-OBT2D-26","SYNTH-079","HBA1C","HbA1c (%)","Week 4",4,8.1
"SYNTH-OBT2D-26","SYNTH-079","HBA1C","HbA1c (%)","Week 8",8,7.9
"SYNTH-OBT2D-26","SYNTH-079","HBA1C","HbA1c (%)","Week 12",12,7.6
"SYNTH-OBT2D-26","SYNTH-079","HBA1C","HbA1c (%)","Week 16",16,7.5
"SYNTH-OBT2D-26","SYNTH-079","HBA1C","HbA1c (%)","Week 20",20,7.5
"SYNTH-OBT2D-26","SYNTH-079","HBA1C","HbA1c (%)","Week 26",26,7.3
"SYNTH-OBT2D-26","SYNTH-079","HEIGHT","Height (cm)","Baseline",0,168
"SYNTH-OBT2D-26","SYNTH-079","WEIGHT","Weight (kg)","Baseline",0,86.3
"SYNTH-OBT2D-26","SYNTH-079","WEIGHT","Weight (kg)","Week 4",4,82.2
"SYNTH-OBT2D-26","SYNTH-079","WEIGHT","Weight (kg)","Week 8",8,79.7
"SYNTH-OBT2D-26","SYNTH-079","WEIGHT","Weight (kg)","Week 12",12,77
"SYNTH-OBT2D-26","SYNTH-079","WEIGHT","Weight (kg)","Week 16",16,75.7
"SYNTH-OBT2D-26","SYNTH-079","WEIGHT","Weight (kg)","Week 20",20,74.6
"SYNTH-OBT2D-26","SYNTH-079","WEIGHT","Weight (kg)","Week 26",26,73.5
"SYNTH-OBT2D-26","SYNTH-080","HBA1C","HbA1c (%)","Baseline",0,7.6
"SYNTH-OBT2D-26","SYNTH-080","HBA1C","HbA1c (%)","Week 4",4,7.5
"SYNTH-OBT2D-26","SYNTH-080","HBA1C","HbA1c (%)","Week 8",8,7.3
"SYNTH-OBT2D-26","SYNTH-080","HBA1C","HbA1c (%)","Week 12",12,7.3
"SYNTH-OBT2D-26","SYNTH-080","HBA1C","HbA1c (%)","Week 16",16,7.3
"SYNTH-OBT2D-26","SYNTH-080","HBA1C","HbA1c (%)","Week 20",20,7.2
"SYNTH-OBT2D-26","SYNTH-080","HBA1C","HbA1c (%)","Week 26",26,7.2
"SYNTH-OBT2D-26","SYNTH-080","HEIGHT","Height (cm)","Baseline",0,177
"SYNTH-OBT2D-26","SYNTH-080","WEIGHT","Weight (kg)","Baseline",0,86.6
"SYNTH-OBT2D-26","SYNTH-080","WEIGHT","Weight (kg)","Week 4",4,85.1
"SYNTH-OBT2D-26","SYNTH-080","WEIGHT","Weight (kg)","Week 8",8,84.1
"SYNTH-OBT2D-26","SYNTH-080","WEIGHT","Weight (kg)","Week 12",12,82.9
"SYNTH-OBT2D-26","SYNTH-080","WEIGHT","Weight (kg)","Week 16",16,83
"SYNTH-OBT2D-26","SYNTH-080","WEIGHT","Weight (kg)","Week 20",20,82.7
"SYNTH-OBT2D-26","SYNTH-080","WEIGHT","Weight (kg)","Week 26",26,82
"SYNTH-OBT2D-26","SYNTH-081","HBA1C","HbA1c (%)","Baseline",0,7.9
"SYNTH-OBT2D-26","SYNTH-081","HBA1C","HbA1c (%)","Week 4",4,7.8
"SYNTH-OBT2D-26","SYNTH-081","HBA1C","HbA1c (%)","Week 8",8,7.7
"SYNTH-OBT2D-26","SYNTH-081","HBA1C","HbA1c (%)","Week 12",12,7.5
"SYNTH-OBT2D-26","SYNTH-081","HBA1C","HbA1c (%)","Week 16",16,7.6
"SYNTH-OBT2D-26","SYNTH-081","HBA1C","HbA1c (%)","Week 20",20,7.5
"SYNTH-OBT2D-26","SYNTH-081","HBA1C","HbA1c (%)","Week 26",26,7.5
"SYNTH-OBT2D-26","SYNTH-081","HEIGHT","Height (cm)","Baseline",0,161
"SYNTH-OBT2D-26","SYNTH-081","WEIGHT","Weight (kg)","Baseline",0,86.7
"SYNTH-OBT2D-26","SYNTH-081","WEIGHT","Weight (kg)","Week 4",4,85.4
"SYNTH-OBT2D-26","SYNTH-081","WEIGHT","Weight (kg)","Week 8",8,85.7
"SYNTH-OBT2D-26","SYNTH-081","WEIGHT","Weight (kg)","Week 12",12,84.7
"SYNTH-OBT2D-26","SYNTH-081","WEIGHT","Weight (kg)","Week 16",16,85.1
"SYNTH-OBT2D-26","SYNTH-081","WEIGHT","Weight (kg)","Week 20",20,84.5
"SYNTH-OBT2D-26","SYNTH-081","WEIGHT","Weight (kg)","Week 26",26,84.4
"SYNTH-OBT2D-26","SYNTH-082","HBA1C","HbA1c (%)","Baseline",0,7.4
"SYNTH-OBT2D-26","SYNTH-082","HBA1C","HbA1c (%)","Week 4",4,7
"SYNTH-OBT2D-26","SYNTH-082","HBA1C","HbA1c (%)","Week 8",8,6.8
"SYNTH-OBT2D-26","SYNTH-082","HBA1C","HbA1c (%)","Week 12",12,6.7
"SYNTH-OBT2D-26","SYNTH-082","HBA1C","HbA1c (%)","Week 16",16,6.5
"SYNTH-OBT2D-26","SYNTH-082","HBA1C","HbA1c (%)","Week 20",20,6.4
"SYNTH-OBT2D-26","SYNTH-082","HBA1C","HbA1c (%)","Week 26",26,6.3
"SYNTH-OBT2D-26","SYNTH-082","HEIGHT","Height (cm)","Baseline",0,181
"SYNTH-OBT2D-26","SYNTH-082","WEIGHT","Weight (kg)","Baseline",0,108.6
"SYNTH-OBT2D-26","SYNTH-082","WEIGHT","Weight (kg)","Week 4",4,105.1
"SYNTH-OBT2D-26","SYNTH-082","WEIGHT","Weight (kg)","Week 8",8,102.4
"SYNTH-OBT2D-26","SYNTH-082","WEIGHT","Weight (kg)","Week 12",12,100.8
"SYNTH-OBT2D-26","SYNTH-082","WEIGHT","Weight (kg)","Week 16",16,99.2
"SYNTH-OBT2D-26","SYNTH-082","WEIGHT","Weight (kg)","Week 20",20,98.6
"SYNTH-OBT2D-26","SYNTH-082","WEIGHT","Weight (kg)","Week 26",26,97.6
"SYNTH-OBT2D-26","SYNTH-083","HBA1C","HbA1c (%)","Baseline",0,9.5
"SYNTH-OBT2D-26","SYNTH-083","HBA1C","HbA1c (%)","Week 4",4,8.9
"SYNTH-OBT2D-26","SYNTH-083","HBA1C","HbA1c (%)","Week 8",8,8.6
"SYNTH-OBT2D-26","SYNTH-083","HBA1C","HbA1c (%)","Week 12",12,8.2
"SYNTH-OBT2D-26","SYNTH-083","HBA1C","HbA1c (%)","Week 16",16,8
"SYNTH-OBT2D-26","SYNTH-083","HBA1C","HbA1c (%)","Week 20",20,7.8
"SYNTH-OBT2D-26","SYNTH-083","HBA1C","HbA1c (%)","Week 26",26,7.7
"SYNTH-OBT2D-26","SYNTH-083","HEIGHT","Height (cm)","Baseline",0,168
"SYNTH-OBT2D-26","SYNTH-083","WEIGHT","Weight (kg)","Baseline",0,88.1
"SYNTH-OBT2D-26","SYNTH-083","WEIGHT","Weight (kg)","Week 4",4,83.7
"SYNTH-OBT2D-26","SYNTH-083","WEIGHT","Weight (kg)","Week 8",8,79.9
"SYNTH-OBT2D-26","SYNTH-083","WEIGHT","Weight (kg)","Week 12",12,78
"SYNTH-OBT2D-26","SYNTH-083","WEIGHT","Weight (kg)","Week 16",16,75.9
"SYNTH-OBT2D-26","SYNTH-083","WEIGHT","Weight (kg)","Week 20",20,75.2
"SYNTH-OBT2D-26","SYNTH-083","WEIGHT","Weight (kg)","Week 26",26,73.6
"SYNTH-OBT2D-26","SYNTH-084","HBA1C","HbA1c (%)","Baseline",0,8.2
"SYNTH-OBT2D-26","SYNTH-084","HBA1C","HbA1c (%)","Week 4",4,8.3
"SYNTH-OBT2D-26","SYNTH-084","HBA1C","HbA1c (%)","Week 8",8,8.3
"SYNTH-OBT2D-26","SYNTH-084","HBA1C","HbA1c (%)","Week 12",12,8.4
"SYNTH-OBT2D-26","SYNTH-084","HBA1C","HbA1c (%)","Week 16",16,8.3
"SYNTH-OBT2D-26","SYNTH-084","HBA1C","HbA1c (%)","Week 20",20,8.4
"SYNTH-OBT2D-26","SYNTH-084","HBA1C","HbA1c (%)","Week 26",26,8.3
"SYNTH-OBT2D-26","SYNTH-084","HEIGHT","Height (cm)","Baseline",0,158
"SYNTH-OBT2D-26","SYNTH-084","WEIGHT","Weight (kg)","Baseline",0,90.5
"SYNTH-OBT2D-26","SYNTH-084","WEIGHT","Weight (kg)","Week 4",4,90.6
"SYNTH-OBT2D-26","SYNTH-084","WEIGHT","Weight (kg)","Week 8",8,90.6
"SYNTH-OBT2D-26","SYNTH-084","WEIGHT","Weight (kg)","Week 12",12,90.2
"SYNTH-OBT2D-26","SYNTH-084","WEIGHT","Weight (kg)","Week 16",16,90.4
"SYNTH-OBT2D-26","SYNTH-084","WEIGHT","Weight (kg)","Week 20",20,90.6
"SYNTH-OBT2D-26","SYNTH-084","WEIGHT","Weight (kg)","Week 26",26,90.4
"SYNTH-OBT2D-26","SYNTH-085","HBA1C","HbA1c (%)","Baseline",0,8
"SYNTH-OBT2D-26","SYNTH-085","HBA1C","HbA1c (%)","Week 4",4,8.1
"SYNTH-OBT2D-26","SYNTH-085","HBA1C","HbA1c (%)","Week 8",8,8.1
"SYNTH-OBT2D-26","SYNTH-085","HBA1C","HbA1c (%)","Week 12",12,8.1
"SYNTH-OBT2D-26","SYNTH-085","HBA1C","HbA1c (%)","Week 16",16,8.2
"SYNTH-OBT2D-26","SYNTH-085","HBA1C","HbA1c (%)","Week 20",20,8.2
"SYNTH-OBT2D-26","SYNTH-085","HBA1C","HbA1c (%)","Week 26",26,8.2
"SYNTH-OBT2D-26","SYNTH-085","HEIGHT","Height (cm)","Baseline",0,183
"SYNTH-OBT2D-26","SYNTH-085","WEIGHT","Weight (kg)","Baseline",0,104
"SYNTH-OBT2D-26","SYNTH-085","WEIGHT","Weight (kg)","Week 4",4,104.2
"SYNTH-OBT2D-26","SYNTH-085","WEIGHT","Weight (kg)","Week 8",8,104.7
"SYNTH-OBT2D-26","SYNTH-085","WEIGHT","Weight (kg)","Week 12",12,104.9
"SYNTH-OBT2D-26","SYNTH-085","WEIGHT","Weight (kg)","Week 16",16,105
"SYNTH-OBT2D-26","SYNTH-085","WEIGHT","Weight (kg)","Week 20",20,105.2
"SYNTH-OBT2D-26","SYNTH-085","WEIGHT","Weight (kg)","Week 26",26,105.2
"SYNTH-OBT2D-26","SYNTH-086","HBA1C","HbA1c (%)","Baseline",0,7.5
"SYNTH-OBT2D-26","SYNTH-086","HBA1C","HbA1c (%)","Week 4",4,7.2
"SYNTH-OBT2D-26","SYNTH-086","HBA1C","HbA1c (%)","Week 8",8,6.9
"SYNTH-OBT2D-26","SYNTH-086","HBA1C","HbA1c (%)","Week 12",12,6.8
"SYNTH-OBT2D-26","SYNTH-086","HBA1C","HbA1c (%)","Week 16",16,6.7
"SYNTH-OBT2D-26","SYNTH-086","HBA1C","HbA1c (%)","Week 20",20,6.7
"SYNTH-OBT2D-26","SYNTH-086","HBA1C","HbA1c (%)","Week 26",26,6.6
"SYNTH-OBT2D-26","SYNTH-086","HEIGHT","Height (cm)","Baseline",0,166
"SYNTH-OBT2D-26","SYNTH-086","WEIGHT","Weight (kg)","Baseline",0,78.2
"SYNTH-OBT2D-26","SYNTH-086","WEIGHT","Weight (kg)","Week 4",4,76
"SYNTH-OBT2D-26","SYNTH-086","WEIGHT","Weight (kg)","Week 8",8,74.4
"SYNTH-OBT2D-26","SYNTH-086","WEIGHT","Weight (kg)","Week 12",12,73.4
"SYNTH-OBT2D-26","SYNTH-086","WEIGHT","Weight (kg)","Week 16",16,72.8
"SYNTH-OBT2D-26","SYNTH-086","WEIGHT","Weight (kg)","Week 20",20,72.6
"SYNTH-OBT2D-26","SYNTH-086","WEIGHT","Weight (kg)","Week 26",26,72
"SYNTH-OBT2D-26","SYNTH-087","HBA1C","HbA1c (%)","Baseline",0,7.3
"SYNTH-OBT2D-26","SYNTH-087","HBA1C","HbA1c (%)","Week 4",4,7.2
"SYNTH-OBT2D-26","SYNTH-087","HBA1C","HbA1c (%)","Week 8",8,7.3
"SYNTH-OBT2D-26","SYNTH-087","HBA1C","HbA1c (%)","Week 12",12,7.2
"SYNTH-OBT2D-26","SYNTH-087","HBA1C","HbA1c (%)","Week 16",16,7.1
"SYNTH-OBT2D-26","SYNTH-087","HBA1C","HbA1c (%)","Week 20",20,7.1
"SYNTH-OBT2D-26","SYNTH-087","HBA1C","HbA1c (%)","Week 26",26,7.1
"SYNTH-OBT2D-26","SYNTH-087","HEIGHT","Height (cm)","Baseline",0,161
"SYNTH-OBT2D-26","SYNTH-087","WEIGHT","Weight (kg)","Baseline",0,116.3
"SYNTH-OBT2D-26","SYNTH-087","WEIGHT","Weight (kg)","Week 4",4,116.1
"SYNTH-OBT2D-26","SYNTH-087","WEIGHT","Weight (kg)","Week 8",8,115.3
"SYNTH-OBT2D-26","SYNTH-087","WEIGHT","Weight (kg)","Week 12",12,115
"SYNTH-OBT2D-26","SYNTH-087","WEIGHT","Weight (kg)","Week 16",16,114.3
"SYNTH-OBT2D-26","SYNTH-087","WEIGHT","Weight (kg)","Week 20",20,114.9
"SYNTH-OBT2D-26","SYNTH-087","WEIGHT","Weight (kg)","Week 26",26,114.8
"SYNTH-OBT2D-26","SYNTH-088","HBA1C","HbA1c (%)","Baseline",0,10
"SYNTH-OBT2D-26","SYNTH-088","HBA1C","HbA1c (%)","Week 4",4,9.7
"SYNTH-OBT2D-26","SYNTH-088","HBA1C","HbA1c (%)","Week 8",8,9.7
"SYNTH-OBT2D-26","SYNTH-088","HBA1C","HbA1c (%)","Week 12",12,9.6
"SYNTH-OBT2D-26","SYNTH-088","HBA1C","HbA1c (%)","Week 16",16,9.6
"SYNTH-OBT2D-26","SYNTH-088","HBA1C","HbA1c (%)","Week 20",20,9.4
"SYNTH-OBT2D-26","SYNTH-088","HBA1C","HbA1c (%)","Week 26",26,9.4
"SYNTH-OBT2D-26","SYNTH-088","HEIGHT","Height (cm)","Baseline",0,172
"SYNTH-OBT2D-26","SYNTH-088","WEIGHT","Weight (kg)","Baseline",0,90.7
"SYNTH-OBT2D-26","SYNTH-088","WEIGHT","Weight (kg)","Week 4",4,90.1
"SYNTH-OBT2D-26","SYNTH-088","WEIGHT","Weight (kg)","Week 8",8,89.1
"SYNTH-OBT2D-26","SYNTH-088","WEIGHT","Weight (kg)","Week 12",12,89
"SYNTH-OBT2D-26","SYNTH-088","WEIGHT","Weight (kg)","Week 16",16,88.4
"SYNTH-OBT2D-26","SYNTH-088","WEIGHT","Weight (kg)","Week 20",20,88.5
"SYNTH-OBT2D-26","SYNTH-088","WEIGHT","Weight (kg)","Week 26",26,88.2
"SYNTH-OBT2D-26","SYNTH-089","HBA1C","HbA1c (%)","Baseline",0,7.3
"SYNTH-OBT2D-26","SYNTH-089","HBA1C","HbA1c (%)","Week 4",4,6.8
"SYNTH-OBT2D-26","SYNTH-089","HBA1C","HbA1c (%)","Week 8",8,6.5
"SYNTH-OBT2D-26","SYNTH-089","HBA1C","HbA1c (%)","Week 12",12,6.3
"SYNTH-OBT2D-26","SYNTH-089","HBA1C","HbA1c (%)","Week 16",16,6
"SYNTH-OBT2D-26","SYNTH-089","HBA1C","HbA1c (%)","Week 20",20,5.8
"SYNTH-OBT2D-26","SYNTH-089","HBA1C","HbA1c (%)","Week 26",26,5.7
"SYNTH-OBT2D-26","SYNTH-089","HEIGHT","Height (cm)","Baseline",0,170
"SYNTH-OBT2D-26","SYNTH-089","WEIGHT","Weight (kg)","Baseline",0,95.7
"SYNTH-OBT2D-26","SYNTH-089","WEIGHT","Weight (kg)","Week 4",4,90.4
"SYNTH-OBT2D-26","SYNTH-089","WEIGHT","Weight (kg)","Week 8",8,87
"SYNTH-OBT2D-26","SYNTH-089","WEIGHT","Weight (kg)","Week 12",12,84.4
"SYNTH-OBT2D-26","SYNTH-089","WEIGHT","Weight (kg)","Week 16",16,82
"SYNTH-OBT2D-26","SYNTH-089","WEIGHT","Weight (kg)","Week 20",20,81
"SYNTH-OBT2D-26","SYNTH-089","WEIGHT","Weight (kg)","Week 26",26,79.5
"SYNTH-OBT2D-26","SYNTH-090","HBA1C","HbA1c (%)","Baseline",0,7.9
"SYNTH-OBT2D-26","SYNTH-090","HBA1C","HbA1c (%)","Week 4",4,7.4
"SYNTH-OBT2D-26","SYNTH-090","HBA1C","HbA1c (%)","Week 8",8,6.9
"SYNTH-OBT2D-26","SYNTH-090","HBA1C","HbA1c (%)","Week 12",12,6.6
"SYNTH-OBT2D-26","SYNTH-090","HBA1C","HbA1c (%)","Week 16",16,6.3
"SYNTH-OBT2D-26","SYNTH-090","HBA1C","HbA1c (%)","Week 20",20,6.1
"SYNTH-OBT2D-26","SYNTH-090","HBA1C","HbA1c (%)","Week 26",26,6.1
"SYNTH-OBT2D-26","SYNTH-090","HEIGHT","Height (cm)","Baseline",0,160
"SYNTH-OBT2D-26","SYNTH-090","WEIGHT","Weight (kg)","Baseline",0,81.2
"SYNTH-OBT2D-26","SYNTH-090","WEIGHT","Weight (kg)","Week 4",4,76.9
"SYNTH-OBT2D-26","SYNTH-090","WEIGHT","Weight (kg)","Week 8",8,73.9
"SYNTH-OBT2D-26","SYNTH-090","WEIGHT","Weight (kg)","Week 12",12,71.9
"SYNTH-OBT2D-26","SYNTH-090","WEIGHT","Weight (kg)","Week 16",16,70.7
"SYNTH-OBT2D-26","SYNTH-090","WEIGHT","Weight (kg)","Week 20",20,69.3
"SYNTH-OBT2D-26","SYNTH-090","WEIGHT","Weight (kg)","Week 26",26,68.4
"SYNTH-OBT2D-26","SYNTH-091","HBA1C","HbA1c (%)","Baseline",0,8
"SYNTH-OBT2D-26","SYNTH-091","HBA1C","HbA1c (%)","Week 4",4,7.7
"SYNTH-OBT2D-26","SYNTH-091","HBA1C","HbA1c (%)","Week 8",8,7.5
"SYNTH-OBT2D-26","SYNTH-091","HBA1C","HbA1c (%)","Week 12",12,7.3
"SYNTH-OBT2D-26","SYNTH-091","HBA1C","HbA1c (%)","Week 16",16,7.2
"SYNTH-OBT2D-26","SYNTH-091","HBA1C","HbA1c (%)","Week 20",20,7.2
"SYNTH-OBT2D-26","SYNTH-091","HBA1C","HbA1c (%)","Week 26",26,7.1
"SYNTH-OBT2D-26","SYNTH-091","HEIGHT","Height (cm)","Baseline",0,167
"SYNTH-OBT2D-26","SYNTH-091","WEIGHT","Weight (kg)","Baseline",0,90.1
"SYNTH-OBT2D-26","SYNTH-091","WEIGHT","Weight (kg)","Week 4",4,86.8
"SYNTH-OBT2D-26","SYNTH-091","WEIGHT","Weight (kg)","Week 8",8,84.4
"SYNTH-OBT2D-26","SYNTH-091","WEIGHT","Weight (kg)","Week 12",12,82.8
"SYNTH-OBT2D-26","SYNTH-091","WEIGHT","Weight (kg)","Week 16",16,81.6
"SYNTH-OBT2D-26","SYNTH-091","WEIGHT","Weight (kg)","Week 20",20,81.1
"SYNTH-OBT2D-26","SYNTH-091","WEIGHT","Weight (kg)","Week 26",26,80.1
"SYNTH-OBT2D-26","SYNTH-092","HBA1C","HbA1c (%)","Baseline",0,8.5
"SYNTH-OBT2D-26","SYNTH-092","HBA1C","HbA1c (%)","Week 4",4,8.4
"SYNTH-OBT2D-26","SYNTH-092","HBA1C","HbA1c (%)","Week 8",8,8.4
"SYNTH-OBT2D-26","SYNTH-092","HBA1C","HbA1c (%)","Week 12",12,8.5
"SYNTH-OBT2D-26","SYNTH-092","HBA1C","HbA1c (%)","Week 16",16,8.3
"SYNTH-OBT2D-26","SYNTH-092","HBA1C","HbA1c (%)","Week 20",20,8.3
"SYNTH-OBT2D-26","SYNTH-092","HBA1C","HbA1c (%)","Week 26",26,8.3
"SYNTH-OBT2D-26","SYNTH-092","HEIGHT","Height (cm)","Baseline",0,183
"SYNTH-OBT2D-26","SYNTH-092","WEIGHT","Weight (kg)","Baseline",0,128.5
"SYNTH-OBT2D-26","SYNTH-092","WEIGHT","Weight (kg)","Week 4",4,126.6
"SYNTH-OBT2D-26","SYNTH-092","WEIGHT","Weight (kg)","Week 8",8,125.5
"SYNTH-OBT2D-26","SYNTH-092","WEIGHT","Weight (kg)","Week 12",12,124.5
"SYNTH-OBT2D-26","SYNTH-092","WEIGHT","Weight (kg)","Week 16",16,123.6
"SYNTH-OBT2D-26","SYNTH-092","WEIGHT","Weight (kg)","Week 20",20,123.7
"SYNTH-OBT2D-26","SYNTH-092","WEIGHT","Weight (kg)","Week 26",26,122.8
"SYNTH-OBT2D-26","SYNTH-093","HBA1C","HbA1c (%)","Baseline",0,7.9
"SYNTH-OBT2D-26","SYNTH-093","HBA1C","HbA1c (%)","Week 4",4,7.8
"SYNTH-OBT2D-26","SYNTH-093","HBA1C","HbA1c (%)","Week 8",8,7.7
"SYNTH-OBT2D-26","SYNTH-093","HBA1C","HbA1c (%)","Week 12",12,7.9
"SYNTH-OBT2D-26","SYNTH-093","HBA1C","HbA1c (%)","Week 16",16,7.7
"SYNTH-OBT2D-26","SYNTH-093","HBA1C","HbA1c (%)","Week 20",20,7.7
"SYNTH-OBT2D-26","SYNTH-093","HBA1C","HbA1c (%)","Week 26",26,7.7
"SYNTH-OBT2D-26","SYNTH-093","HEIGHT","Height (cm)","Baseline",0,175
"SYNTH-OBT2D-26","SYNTH-093","WEIGHT","Weight (kg)","Baseline",0,101.6
"SYNTH-OBT2D-26","SYNTH-093","WEIGHT","Weight (kg)","Week 4",4,101
"SYNTH-OBT2D-26","SYNTH-093","WEIGHT","Weight (kg)","Week 8",8,100.8
"SYNTH-OBT2D-26","SYNTH-093","WEIGHT","Weight (kg)","Week 12",12,100.8
"SYNTH-OBT2D-26","SYNTH-093","WEIGHT","Weight (kg)","Week 16",16,100.4
"SYNTH-OBT2D-26","SYNTH-093","WEIGHT","Weight (kg)","Week 20",20,100.6
"SYNTH-OBT2D-26","SYNTH-093","WEIGHT","Weight (kg)","Week 26",26,100.2
"SYNTH-OBT2D-26","SYNTH-094","HBA1C","HbA1c (%)","Baseline",0,9
"SYNTH-OBT2D-26","SYNTH-094","HBA1C","HbA1c (%)","Week 4",4,8.7
"SYNTH-OBT2D-26","SYNTH-094","HBA1C","HbA1c (%)","Week 8",8,8.5
"SYNTH-OBT2D-26","SYNTH-094","HBA1C","HbA1c (%)","Week 12",12,8.4
"SYNTH-OBT2D-26","SYNTH-094","HBA1C","HbA1c (%)","Week 16",16,8.1
"SYNTH-OBT2D-26","SYNTH-094","HBA1C","HbA1c (%)","Week 20",20,8.2
"SYNTH-OBT2D-26","SYNTH-094","HBA1C","HbA1c (%)","Week 26",26,8.1
"SYNTH-OBT2D-26","SYNTH-094","HEIGHT","Height (cm)","Baseline",0,172
"SYNTH-OBT2D-26","SYNTH-094","WEIGHT","Weight (kg)","Baseline",0,96.2
"SYNTH-OBT2D-26","SYNTH-094","WEIGHT","Weight (kg)","Week 4",4,92.7
"SYNTH-OBT2D-26","SYNTH-094","WEIGHT","Weight (kg)","Week 8",8,90.9
"SYNTH-OBT2D-26","SYNTH-094","WEIGHT","Weight (kg)","Week 12",12,89.4
"SYNTH-OBT2D-26","SYNTH-094","WEIGHT","Weight (kg)","Week 16",16,88.2
"SYNTH-OBT2D-26","SYNTH-094","WEIGHT","Weight (kg)","Week 20",20,86.5
"SYNTH-OBT2D-26","SYNTH-094","WEIGHT","Weight (kg)","Week 26",26,86.3
"SYNTH-OBT2D-26","SYNTH-095","HBA1C","HbA1c (%)","Baseline",0,8.2
"SYNTH-OBT2D-26","SYNTH-095","HBA1C","HbA1c (%)","Week 4",4,7.6
"SYNTH-OBT2D-26","SYNTH-095","HBA1C","HbA1c (%)","Week 8",8,7.3
"SYNTH-OBT2D-26","SYNTH-095","HBA1C","HbA1c (%)","Week 12",12,7
"SYNTH-OBT2D-26","SYNTH-095","HBA1C","HbA1c (%)","Week 16",16,6.8
"SYNTH-OBT2D-26","SYNTH-095","HBA1C","HbA1c (%)","Week 20",20,6.7
"SYNTH-OBT2D-26","SYNTH-095","HBA1C","HbA1c (%)","Week 26",26,6.5
"SYNTH-OBT2D-26","SYNTH-095","HEIGHT","Height (cm)","Baseline",0,171
"SYNTH-OBT2D-26","SYNTH-095","WEIGHT","Weight (kg)","Baseline",0,82.4
"SYNTH-OBT2D-26","SYNTH-095","WEIGHT","Weight (kg)","Week 4",4,78.2
"SYNTH-OBT2D-26","SYNTH-095","WEIGHT","Weight (kg)","Week 8",8,75.7
"SYNTH-OBT2D-26","SYNTH-095","WEIGHT","Weight (kg)","Week 12",12,73.2
"SYNTH-OBT2D-26","SYNTH-095","WEIGHT","Weight (kg)","Week 16",16,71.5
"SYNTH-OBT2D-26","SYNTH-095","WEIGHT","Weight (kg)","Week 20",20,71.1
"SYNTH-OBT2D-26","SYNTH-095","WEIGHT","Weight (kg)","Week 26",26,69.7
"SYNTH-OBT2D-26","SYNTH-096","HBA1C","HbA1c (%)","Baseline",0,9.4
"SYNTH-OBT2D-26","SYNTH-096","HBA1C","HbA1c (%)","Week 4",4,8.8
"SYNTH-OBT2D-26","SYNTH-096","HBA1C","HbA1c (%)","Week 8",8,8.5
"SYNTH-OBT2D-26","SYNTH-096","HBA1C","HbA1c (%)","Week 12",12,8.3
"SYNTH-OBT2D-26","SYNTH-096","HBA1C","HbA1c (%)","Week 16",16,8.2
"SYNTH-OBT2D-26","SYNTH-096","HBA1C","HbA1c (%)","Week 20",20,8
"SYNTH-OBT2D-26","SYNTH-096","HBA1C","HbA1c (%)","Week 26",26,7.9
"SYNTH-OBT2D-26","SYNTH-096","HEIGHT","Height (cm)","Baseline",0,168
"SYNTH-OBT2D-26","SYNTH-096","WEIGHT","Weight (kg)","Baseline",0,79.3
"SYNTH-OBT2D-26","SYNTH-096","WEIGHT","Weight (kg)","Week 4",4,75.6
"SYNTH-OBT2D-26","SYNTH-096","WEIGHT","Weight (kg)","Week 8",8,72.6
"SYNTH-OBT2D-26","SYNTH-096","WEIGHT","Weight (kg)","Week 12",12,71
"SYNTH-OBT2D-26","SYNTH-096","WEIGHT","Weight (kg)","Week 16",16,69.6
"SYNTH-OBT2D-26","SYNTH-096","WEIGHT","Weight (kg)","Week 20",20,68.8
"SYNTH-OBT2D-26","SYNTH-096","WEIGHT","Weight (kg)","Week 26",26,67.9
"SYNTH-OBT2D-26","SYNTH-097","HBA1C","HbA1c (%)","Baseline",0,9.5
"SYNTH-OBT2D-26","SYNTH-097","HBA1C","HbA1c (%)","Week 4",4,9.5
"SYNTH-OBT2D-26","SYNTH-097","HBA1C","HbA1c (%)","Week 8",8,9.6
"SYNTH-OBT2D-26","SYNTH-097","HBA1C","HbA1c (%)","Week 12",12,9.6
"SYNTH-OBT2D-26","SYNTH-097","HBA1C","HbA1c (%)","Week 16",16,9.7
"SYNTH-OBT2D-26","SYNTH-097","HBA1C","HbA1c (%)","Week 20",20,9.6
"SYNTH-OBT2D-26","SYNTH-097","HBA1C","HbA1c (%)","Week 26",26,9.7
"SYNTH-OBT2D-26","SYNTH-097","HEIGHT","Height (cm)","Baseline",0,180
"SYNTH-OBT2D-26","SYNTH-097","WEIGHT","Weight (kg)","Baseline",0,99.9
"SYNTH-OBT2D-26","SYNTH-097","WEIGHT","Weight (kg)","Week 4",4,100.5
"SYNTH-OBT2D-26","SYNTH-097","WEIGHT","Weight (kg)","Week 8",8,100.4
"SYNTH-OBT2D-26","SYNTH-097","WEIGHT","Weight (kg)","Week 12",12,100.8
"SYNTH-OBT2D-26","SYNTH-097","WEIGHT","Weight (kg)","Week 16",16,100.3
"SYNTH-OBT2D-26","SYNTH-097","WEIGHT","Weight (kg)","Week 20",20,100.2
"SYNTH-OBT2D-26","SYNTH-097","WEIGHT","Weight (kg)","Week 26",26,100.7
"SYNTH-OBT2D-26","SYNTH-098","HBA1C","HbA1c (%)","Baseline",0,8
"SYNTH-OBT2D-26","SYNTH-098","HBA1C","HbA1c (%)","Week 4",4,7.9
"SYNTH-OBT2D-26","SYNTH-098","HBA1C","HbA1c (%)","Week 8",8,7.8
"SYNTH-OBT2D-26","SYNTH-098","HBA1C","HbA1c (%)","Week 12",12,7.7
"SYNTH-OBT2D-26","SYNTH-098","HBA1C","HbA1c (%)","Week 16",16,7.7
"SYNTH-OBT2D-26","SYNTH-098","HBA1C","HbA1c (%)","Week 20",20,7.6
"SYNTH-OBT2D-26","SYNTH-098","HBA1C","HbA1c (%)","Week 26",26,7.6
"SYNTH-OBT2D-26","SYNTH-098","HEIGHT","Height (cm)","Baseline",0,169
"SYNTH-OBT2D-26","SYNTH-098","WEIGHT","Weight (kg)","Baseline",0,90
"SYNTH-OBT2D-26","SYNTH-098","WEIGHT","Weight (kg)","Week 4",4,88.6
"SYNTH-OBT2D-26","SYNTH-098","WEIGHT","Weight (kg)","Week 8",8,86.9
"SYNTH-OBT2D-26","SYNTH-098","WEIGHT","Weight (kg)","Week 12",12,86.6
"SYNTH-OBT2D-26","SYNTH-098","WEIGHT","Weight (kg)","Week 16",16,85.7
"SYNTH-OBT2D-26","SYNTH-098","WEIGHT","Weight (kg)","Week 20",20,85.3
"SYNTH-OBT2D-26","SYNTH-098","WEIGHT","Weight (kg)","Week 26",26,84.9
"SYNTH-OBT2D-26","SYNTH-099","HBA1C","HbA1c (%)","Baseline",0,8.1
"SYNTH-OBT2D-26","SYNTH-099","HBA1C","HbA1c (%)","Week 4",4,8.1
"SYNTH-OBT2D-26","SYNTH-099","HBA1C","HbA1c (%)","Week 8",8,8
"SYNTH-OBT2D-26","SYNTH-099","HBA1C","HbA1c (%)","Week 12",12,7.9
"SYNTH-OBT2D-26","SYNTH-099","HBA1C","HbA1c (%)","Week 16",16,8
"SYNTH-OBT2D-26","SYNTH-099","HBA1C","HbA1c (%)","Week 20",20,8
"SYNTH-OBT2D-26","SYNTH-099","HBA1C","HbA1c (%)","Week 26",26,8
"SYNTH-OBT2D-26","SYNTH-099","HEIGHT","Height (cm)","Baseline",0,163
"SYNTH-OBT2D-26","SYNTH-099","WEIGHT","Weight (kg)","Baseline",0,112
"SYNTH-OBT2D-26","SYNTH-099","WEIGHT","Weight (kg)","Week 4",4,111.7
"SYNTH-OBT2D-26","SYNTH-099","WEIGHT","Weight (kg)","Week 8",8,110.9
"SYNTH-OBT2D-26","SYNTH-099","WEIGHT","Weight (kg)","Week 12",12,110.7
"SYNTH-OBT2D-26","SYNTH-099","WEIGHT","Weight (kg)","Week 16",16,110.7
"SYNTH-OBT2D-26","SYNTH-099","WEIGHT","Weight (kg)","Week 20",20,110.4
"SYNTH-OBT2D-26","SYNTH-099","WEIGHT","Weight (kg)","Week 26",26,110.3
"SYNTH-OBT2D-26","SYNTH-100","HBA1C","HbA1c (%)","Baseline",0,7.3
"SYNTH-OBT2D-26","SYNTH-100","HBA1C","HbA1c (%)","Week 4",4,7.1
"SYNTH-OBT2D-26","SYNTH-100","HBA1C","HbA1c (%)","Week 8",8,6.9
"SYNTH-OBT2D-26","SYNTH-100","HBA1C","HbA1c (%)","Week 12",12,6.7
"SYNTH-OBT2D-26","SYNTH-100","HBA1C","HbA1c (%)","Week 16",16,6.5
"SYNTH-OBT2D-26","SYNTH-100","HBA1C","HbA1c (%)","Week 20",20,6.5
"SYNTH-OBT2D-26","SYNTH-100","HBA1C","HbA1c (%)","Week 26",26,6.4
"SYNTH-OBT2D-26","SYNTH-100","HEIGHT","Height (cm)","Baseline",0,160
"SYNTH-OBT2D-26","SYNTH-100","WEIGHT","Weight (kg)","Baseline",0,96.4
"SYNTH-OBT2D-26","SYNTH-100","WEIGHT","Weight (kg)","Week 4",4,93.2
"SYNTH-OBT2D-26","SYNTH-100","WEIGHT","Weight (kg)","Week 8",8,91
"SYNTH-OBT2D-26","SYNTH-100","WEIGHT","Weight (kg)","Week 12",12,89.6
"SYNTH-OBT2D-26","SYNTH-100","WEIGHT","Weight (kg)","Week 16",16,88.5
"SYNTH-OBT2D-26","SYNTH-100","WEIGHT","Weight (kg)","Week 20",20,87.2
"SYNTH-OBT2D-26","SYNTH-100","WEIGHT","Weight (kg)","Week 26",26,86.9
"SYNTH-OBT2D-26","SYNTH-101","HBA1C","HbA1c (%)","Baseline",0,7.8
"SYNTH-OBT2D-26","SYNTH-101","HBA1C","HbA1c (%)","Week 4",4,7.5
"SYNTH-OBT2D-26","SYNTH-101","HBA1C","HbA1c (%)","Week 8",8,7.1
"SYNTH-OBT2D-26","SYNTH-101","HBA1C","HbA1c (%)","Week 12",12,6.9
"SYNTH-OBT2D-26","SYNTH-101","HBA1C","HbA1c (%)","Week 16",16,6.8
"SYNTH-OBT2D-26","SYNTH-101","HBA1C","HbA1c (%)","Week 20",20,6.8
"SYNTH-OBT2D-26","SYNTH-101","HBA1C","HbA1c (%)","Week 26",26,6.6
"SYNTH-OBT2D-26","SYNTH-101","HEIGHT","Height (cm)","Baseline",0,186
"SYNTH-OBT2D-26","SYNTH-101","WEIGHT","Weight (kg)","Baseline",0,107.2
"SYNTH-OBT2D-26","SYNTH-101","WEIGHT","Weight (kg)","Week 4",4,103.9
"SYNTH-OBT2D-26","SYNTH-101","WEIGHT","Weight (kg)","Week 8",8,100.7
"SYNTH-OBT2D-26","SYNTH-101","WEIGHT","Weight (kg)","Week 12",12,99.2
"SYNTH-OBT2D-26","SYNTH-101","WEIGHT","Weight (kg)","Week 16",16,97.8
"SYNTH-OBT2D-26","SYNTH-101","WEIGHT","Weight (kg)","Week 20",20,97.1
"SYNTH-OBT2D-26","SYNTH-101","WEIGHT","Weight (kg)","Week 26",26,95.9
"SYNTH-OBT2D-26","SYNTH-102","HBA1C","HbA1c (%)","Baseline",0,8.2
"SYNTH-OBT2D-26","SYNTH-102","HBA1C","HbA1c (%)","Week 4",4,8.1
"SYNTH-OBT2D-26","SYNTH-102","HBA1C","HbA1c (%)","Week 8",8,8.1
"SYNTH-OBT2D-26","SYNTH-102","HBA1C","HbA1c (%)","Week 12",12,8.1
"SYNTH-OBT2D-26","SYNTH-102","HBA1C","HbA1c (%)","Week 16",16,8
"SYNTH-OBT2D-26","SYNTH-102","HBA1C","HbA1c (%)","Week 20",20,7.9
"SYNTH-OBT2D-26","SYNTH-102","HBA1C","HbA1c (%)","Week 26",26,8
"SYNTH-OBT2D-26","SYNTH-102","HEIGHT","Height (cm)","Baseline",0,168
"SYNTH-OBT2D-26","SYNTH-102","WEIGHT","Weight (kg)","Baseline",0,109.2
"SYNTH-OBT2D-26","SYNTH-102","WEIGHT","Weight (kg)","Week 4",4,108.1
"SYNTH-OBT2D-26","SYNTH-102","WEIGHT","Weight (kg)","Week 8",8,107.8
"SYNTH-OBT2D-26","SYNTH-102","WEIGHT","Weight (kg)","Week 12",12,107.3
"SYNTH-OBT2D-26","SYNTH-102","WEIGHT","Weight (kg)","Week 16",16,107.1
"SYNTH-OBT2D-26","SYNTH-102","WEIGHT","Weight (kg)","Week 20",20,107.1
"SYNTH-OBT2D-26","SYNTH-102","WEIGHT","Weight (kg)","Week 26",26,106.8
"SYNTH-OBT2D-26","SYNTH-103","HBA1C","HbA1c (%)","Baseline",0,8.4
"SYNTH-OBT2D-26","SYNTH-103","HBA1C","HbA1c (%)","Week 4",4,8.3
"SYNTH-OBT2D-26","SYNTH-103","HBA1C","HbA1c (%)","Week 8",8,8.3
"SYNTH-OBT2D-26","SYNTH-103","HBA1C","HbA1c (%)","Week 12",12,8.3
"SYNTH-OBT2D-26","SYNTH-103","HBA1C","HbA1c (%)","Week 16",16,8.2
"SYNTH-OBT2D-26","SYNTH-103","HBA1C","HbA1c (%)","Week 20",20,8.2
"SYNTH-OBT2D-26","SYNTH-103","HBA1C","HbA1c (%)","Week 26",26,8.2
"SYNTH-OBT2D-26","SYNTH-103","HEIGHT","Height (cm)","Baseline",0,176
"SYNTH-OBT2D-26","SYNTH-103","WEIGHT","Weight (kg)","Baseline",0,86.2
"SYNTH-OBT2D-26","SYNTH-103","WEIGHT","Weight (kg)","Week 4",4,85.1
"SYNTH-OBT2D-26","SYNTH-103","WEIGHT","Weight (kg)","Week 8",8,84.6
"SYNTH-OBT2D-26","SYNTH-103","WEIGHT","Weight (kg)","Week 12",12,83.8
"SYNTH-OBT2D-26","SYNTH-103","WEIGHT","Weight (kg)","Week 16",16,83.4
"SYNTH-OBT2D-26","SYNTH-103","WEIGHT","Weight (kg)","Week 20",20,83.1
"SYNTH-OBT2D-26","SYNTH-103","WEIGHT","Weight (kg)","Week 26",26,82.8
"SYNTH-OBT2D-26","SYNTH-104","HBA1C","HbA1c (%)","Baseline",0,7.3
"SYNTH-OBT2D-26","SYNTH-104","HBA1C","HbA1c (%)","Week 4",4,6.9
"SYNTH-OBT2D-26","SYNTH-104","HBA1C","HbA1c (%)","Week 8",8,6.8
"SYNTH-OBT2D-26","SYNTH-104","HBA1C","HbA1c (%)","Week 12",12,6.5
"SYNTH-OBT2D-26","SYNTH-104","HBA1C","HbA1c (%)","Week 16",16,6.4
"SYNTH-OBT2D-26","SYNTH-104","HBA1C","HbA1c (%)","Week 20",20,6.4
"SYNTH-OBT2D-26","SYNTH-104","HBA1C","HbA1c (%)","Week 26",26,6.2
"SYNTH-OBT2D-26","SYNTH-104","HEIGHT","Height (cm)","Baseline",0,179
"SYNTH-OBT2D-26","SYNTH-104","WEIGHT","Weight (kg)","Baseline",0,89.6
"SYNTH-OBT2D-26","SYNTH-104","WEIGHT","Weight (kg)","Week 4",4,86.8
"SYNTH-OBT2D-26","SYNTH-104","WEIGHT","Weight (kg)","Week 8",8,84.7
"SYNTH-OBT2D-26","SYNTH-104","WEIGHT","Weight (kg)","Week 12",12,82.8
"SYNTH-OBT2D-26","SYNTH-104","WEIGHT","Weight (kg)","Week 16",16,81.6
"SYNTH-OBT2D-26","SYNTH-104","WEIGHT","Weight (kg)","Week 20",20,81.3
"SYNTH-OBT2D-26","SYNTH-104","WEIGHT","Weight (kg)","Week 26",26,80.1
"SYNTH-OBT2D-26","SYNTH-105","HBA1C","HbA1c (%)","Baseline",0,7.2
"SYNTH-OBT2D-26","SYNTH-105","HBA1C","HbA1c (%)","Week 4",4,7.2
"SYNTH-OBT2D-26","SYNTH-105","HBA1C","HbA1c (%)","Week 8",8,7.1
"SYNTH-OBT2D-26","SYNTH-105","HBA1C","HbA1c (%)","Week 12",12,7.1
"SYNTH-OBT2D-26","SYNTH-105","HBA1C","HbA1c (%)","Week 16",16,7.1
"SYNTH-OBT2D-26","SYNTH-105","HBA1C","HbA1c (%)","Week 20",20,7.2
"SYNTH-OBT2D-26","SYNTH-105","HBA1C","HbA1c (%)","Week 26",26,7.1
"SYNTH-OBT2D-26","SYNTH-105","HEIGHT","Height (cm)","Baseline",0,164
"SYNTH-OBT2D-26","SYNTH-105","WEIGHT","Weight (kg)","Baseline",0,106.1
"SYNTH-OBT2D-26","SYNTH-105","WEIGHT","Weight (kg)","Week 4",4,106.1
"SYNTH-OBT2D-26","SYNTH-105","WEIGHT","Weight (kg)","Week 8",8,105.6
"SYNTH-OBT2D-26","SYNTH-105","WEIGHT","Weight (kg)","Week 12",12,106.2
"SYNTH-OBT2D-26","SYNTH-105","WEIGHT","Weight (kg)","Week 16",16,105.9
"SYNTH-OBT2D-26","SYNTH-105","WEIGHT","Weight (kg)","Week 20",20,106.1
"SYNTH-OBT2D-26","SYNTH-105","WEIGHT","Weight (kg)","Week 26",26,105.9
"SYNTH-OBT2D-26","SYNTH-106","HBA1C","HbA1c (%)","Baseline",0,7.7
"SYNTH-OBT2D-26","SYNTH-106","HBA1C","HbA1c (%)","Week 4",4,7.7
"SYNTH-OBT2D-26","SYNTH-106","HBA1C","HbA1c (%)","Week 8",8,7.8
"SYNTH-OBT2D-26","SYNTH-106","HBA1C","HbA1c (%)","Week 12",12,7.8
"SYNTH-OBT2D-26","SYNTH-106","HBA1C","HbA1c (%)","Week 16",16,7.8
"SYNTH-OBT2D-26","SYNTH-106","HBA1C","HbA1c (%)","Week 20",20,7.9
"SYNTH-OBT2D-26","SYNTH-106","HBA1C","HbA1c (%)","Week 26",26,7.8
"SYNTH-OBT2D-26","SYNTH-106","HEIGHT","Height (cm)","Baseline",0,152
"SYNTH-OBT2D-26","SYNTH-106","WEIGHT","Weight (kg)","Baseline",0,77.7
"SYNTH-OBT2D-26","SYNTH-106","WEIGHT","Weight (kg)","Week 4",4,78
"SYNTH-OBT2D-26","SYNTH-106","WEIGHT","Weight (kg)","Week 8",8,77.7
"SYNTH-OBT2D-26","SYNTH-106","WEIGHT","Weight (kg)","Week 12",12,78
"SYNTH-OBT2D-26","SYNTH-106","WEIGHT","Weight (kg)","Week 16",16,78.1
"SYNTH-OBT2D-26","SYNTH-106","WEIGHT","Weight (kg)","Week 20",20,78.2
"SYNTH-OBT2D-26","SYNTH-106","WEIGHT","Weight (kg)","Week 26",26,78.1
"SYNTH-OBT2D-26","SYNTH-107","HBA1C","HbA1c (%)","Baseline",0,8.7
"SYNTH-OBT2D-26","SYNTH-107","HBA1C","HbA1c (%)","Week 4",4,8.4
"SYNTH-OBT2D-26","SYNTH-107","HBA1C","HbA1c (%)","Week 8",8,8.2
"SYNTH-OBT2D-26","SYNTH-107","HBA1C","HbA1c (%)","Week 12",12,8.1
"SYNTH-OBT2D-26","SYNTH-107","HBA1C","HbA1c (%)","Week 16",16,7.9
"SYNTH-OBT2D-26","SYNTH-107","HBA1C","HbA1c (%)","Week 20",20,8.1
"SYNTH-OBT2D-26","SYNTH-107","HBA1C","HbA1c (%)","Week 26",26,7.9
"SYNTH-OBT2D-26","SYNTH-107","HEIGHT","Height (cm)","Baseline",0,159
"SYNTH-OBT2D-26","SYNTH-107","WEIGHT","Weight (kg)","Baseline",0,87.5
"SYNTH-OBT2D-26","SYNTH-107","WEIGHT","Weight (kg)","Week 4",4,85.3
"SYNTH-OBT2D-26","SYNTH-107","WEIGHT","Weight (kg)","Week 8",8,84.1
"SYNTH-OBT2D-26","SYNTH-107","WEIGHT","Weight (kg)","Week 12",12,82.8
"SYNTH-OBT2D-26","SYNTH-107","WEIGHT","Weight (kg)","Week 16",16,82.2
"SYNTH-OBT2D-26","SYNTH-107","WEIGHT","Weight (kg)","Week 20",20,81.8
"SYNTH-OBT2D-26","SYNTH-107","WEIGHT","Weight (kg)","Week 26",26,81
"SYNTH-OBT2D-26","SYNTH-108","HBA1C","HbA1c (%)","Baseline",0,8.7
"SYNTH-OBT2D-26","SYNTH-108","HBA1C","HbA1c (%)","Week 4",4,8.5
"SYNTH-OBT2D-26","SYNTH-108","HBA1C","HbA1c (%)","Week 8",8,8.4
"SYNTH-OBT2D-26","SYNTH-108","HBA1C","HbA1c (%)","Week 12",12,8.2
"SYNTH-OBT2D-26","SYNTH-108","HBA1C","HbA1c (%)","Week 16",16,8.2
"SYNTH-OBT2D-26","SYNTH-108","HBA1C","HbA1c (%)","Week 20",20,8.1
"SYNTH-OBT2D-26","SYNTH-108","HBA1C","HbA1c (%)","Week 26",26,8.1
"SYNTH-OBT2D-26","SYNTH-108","HEIGHT","Height (cm)","Baseline",0,178
"SYNTH-OBT2D-26","SYNTH-108","WEIGHT","Weight (kg)","Baseline",0,134.3
"SYNTH-OBT2D-26","SYNTH-108","WEIGHT","Weight (kg)","Week 4",4,132
"SYNTH-OBT2D-26","SYNTH-108","WEIGHT","Weight (kg)","Week 8",8,130.4
"SYNTH-OBT2D-26","SYNTH-108","WEIGHT","Weight (kg)","Week 12",12,128.8
"SYNTH-OBT2D-26","SYNTH-108","WEIGHT","Weight (kg)","Week 16",16,127
"SYNTH-OBT2D-26","SYNTH-108","WEIGHT","Weight (kg)","Week 20",20,126.8
"SYNTH-OBT2D-26","SYNTH-108","WEIGHT","Weight (kg)","Week 26",26,126.4
"SYNTH-OBT2D-26","SYNTH-109","HBA1C","HbA1c (%)","Baseline",0,7.6
"SYNTH-OBT2D-26","SYNTH-109","HBA1C","HbA1c (%)","Week 4",4,7.4
"SYNTH-OBT2D-26","SYNTH-109","HBA1C","HbA1c (%)","Week 8",8,7.4
"SYNTH-OBT2D-26","SYNTH-109","HBA1C","HbA1c (%)","Week 12",12,7.2
"SYNTH-OBT2D-26","SYNTH-109","HBA1C","HbA1c (%)","Week 16",16,7.3
"SYNTH-OBT2D-26","SYNTH-109","HBA1C","HbA1c (%)","Week 20",20,7
"SYNTH-OBT2D-26","SYNTH-109","HBA1C","HbA1c (%)","Week 26",26,7.1
"SYNTH-OBT2D-26","SYNTH-109","HEIGHT","Height (cm)","Baseline",0,156
"SYNTH-OBT2D-26","SYNTH-109","WEIGHT","Weight (kg)","Baseline",0,110.2
"SYNTH-OBT2D-26","SYNTH-109","WEIGHT","Weight (kg)","Week 4",4,108.1
"SYNTH-OBT2D-26","SYNTH-109","WEIGHT","Weight (kg)","Week 8",8,106.5
"SYNTH-OBT2D-26","SYNTH-109","WEIGHT","Weight (kg)","Week 12",12,104.9
"SYNTH-OBT2D-26","SYNTH-109","WEIGHT","Weight (kg)","Week 16",16,103.9
"SYNTH-OBT2D-26","SYNTH-109","WEIGHT","Weight (kg)","Week 20",20,103
"SYNTH-OBT2D-26","SYNTH-109","WEIGHT","Weight (kg)","Week 26",26,102.9
"SYNTH-OBT2D-26","SYNTH-110","HBA1C","HbA1c (%)","Baseline",0,8
"SYNTH-OBT2D-26","SYNTH-110","HBA1C","HbA1c (%)","Week 4",4,7.5
"SYNTH-OBT2D-26","SYNTH-110","HBA1C","HbA1c (%)","Week 8",8,7.5
"SYNTH-OBT2D-26","SYNTH-110","HBA1C","HbA1c (%)","Week 12",12,7.3
"SYNTH-OBT2D-26","SYNTH-110","HBA1C","HbA1c (%)","Week 16",16,7
"SYNTH-OBT2D-26","SYNTH-110","HBA1C","HbA1c (%)","Week 20",20,7
"SYNTH-OBT2D-26","SYNTH-110","HBA1C","HbA1c (%)","Week 26",26,6.9
"SYNTH-OBT2D-26","SYNTH-110","HEIGHT","Height (cm)","Baseline",0,154
"SYNTH-OBT2D-26","SYNTH-110","WEIGHT","Weight (kg)","Baseline",0,67.6
"SYNTH-OBT2D-26","SYNTH-110","WEIGHT","Weight (kg)","Week 4",4,64.6
"SYNTH-OBT2D-26","SYNTH-110","WEIGHT","Weight (kg)","Week 8",8,62.4
"SYNTH-OBT2D-26","SYNTH-110","WEIGHT","Weight (kg)","Week 12",12,60.9
"SYNTH-OBT2D-26","SYNTH-110","WEIGHT","Weight (kg)","Week 16",16,59.8
"SYNTH-OBT2D-26","SYNTH-110","WEIGHT","Weight (kg)","Week 20",20,59.1
"SYNTH-OBT2D-26","SYNTH-110","WEIGHT","Weight (kg)","Week 26",26,58.5
"SYNTH-OBT2D-26","SYNTH-111","HBA1C","HbA1c (%)","Baseline",0,7.3
"SYNTH-OBT2D-26","SYNTH-111","HBA1C","HbA1c (%)","Week 4",4,6.9
"SYNTH-OBT2D-26","SYNTH-111","HBA1C","HbA1c (%)","Week 8",8,6.6
"SYNTH-OBT2D-26","SYNTH-111","HBA1C","HbA1c (%)","Week 12",12,6.4
"SYNTH-OBT2D-26","SYNTH-111","HBA1C","HbA1c (%)","Week 16",16,6.2
"SYNTH-OBT2D-26","SYNTH-111","HBA1C","HbA1c (%)","Week 20",20,6.1
"SYNTH-OBT2D-26","SYNTH-111","HBA1C","HbA1c (%)","Week 26",26,6
"SYNTH-OBT2D-26","SYNTH-111","HEIGHT","Height (cm)","Baseline",0,181
"SYNTH-OBT2D-26","SYNTH-111","WEIGHT","Weight (kg)","Baseline",0,96.5
"SYNTH-OBT2D-26","SYNTH-111","WEIGHT","Weight (kg)","Week 4",4,92.9
"SYNTH-OBT2D-26","SYNTH-111","WEIGHT","Weight (kg)","Week 8",8,90.6
"SYNTH-OBT2D-26","SYNTH-111","WEIGHT","Weight (kg)","Week 12",12,89
"SYNTH-OBT2D-26","SYNTH-111","WEIGHT","Weight (kg)","Week 16",16,87.4
"SYNTH-OBT2D-26","SYNTH-111","WEIGHT","Weight (kg)","Week 20",20,86.8
"SYNTH-OBT2D-26","SYNTH-111","WEIGHT","Weight (kg)","Week 26",26,86
"SYNTH-OBT2D-26","SYNTH-112","HBA1C","HbA1c (%)","Baseline",0,8.2
"SYNTH-OBT2D-26","SYNTH-112","HBA1C","HbA1c (%)","Week 4",4,8.1
"SYNTH-OBT2D-26","SYNTH-112","HBA1C","HbA1c (%)","Week 8",8,8
"SYNTH-OBT2D-26","SYNTH-112","HBA1C","HbA1c (%)","Week 12",12,8
"SYNTH-OBT2D-26","SYNTH-112","HBA1C","HbA1c (%)","Week 16",16,7.9
"SYNTH-OBT2D-26","SYNTH-112","HBA1C","HbA1c (%)","Week 20",20,7.9
"SYNTH-OBT2D-26","SYNTH-112","HBA1C","HbA1c (%)","Week 26",26,7.9
"SYNTH-OBT2D-26","SYNTH-112","HEIGHT","Height (cm)","Baseline",0,193
"SYNTH-OBT2D-26","SYNTH-112","WEIGHT","Weight (kg)","Baseline",0,106.3
"SYNTH-OBT2D-26","SYNTH-112","WEIGHT","Weight (kg)","Week 4",4,105.8
"SYNTH-OBT2D-26","SYNTH-112","WEIGHT","Weight (kg)","Week 8",8,105.4
"SYNTH-OBT2D-26","SYNTH-112","WEIGHT","Weight (kg)","Week 12",12,105.4
"SYNTH-OBT2D-26","SYNTH-112","WEIGHT","Weight (kg)","Week 16",16,105.1
"SYNTH-OBT2D-26","SYNTH-112","WEIGHT","Weight (kg)","Week 20",20,104.4
"SYNTH-OBT2D-26","SYNTH-112","WEIGHT","Weight (kg)","Week 26",26,104.6
"SYNTH-OBT2D-26","SYNTH-113","HBA1C","HbA1c (%)","Baseline",0,9.1
"SYNTH-OBT2D-26","SYNTH-113","HBA1C","HbA1c (%)","Week 4",4,9
"SYNTH-OBT2D-26","SYNTH-113","HBA1C","HbA1c (%)","Week 8",8,8.9
"SYNTH-OBT2D-26","SYNTH-113","HBA1C","HbA1c (%)","Week 12",12,8.8
"SYNTH-OBT2D-26","SYNTH-113","HBA1C","HbA1c (%)","Week 16",16,8.8
"SYNTH-OBT2D-26","SYNTH-113","HBA1C","HbA1c (%)","Week 20",20,8.7
"SYNTH-OBT2D-26","SYNTH-113","HBA1C","HbA1c (%)","Week 26",26,8.7
"SYNTH-OBT2D-26","SYNTH-113","HEIGHT","Height (cm)","Baseline",0,181
"SYNTH-OBT2D-26","SYNTH-113","WEIGHT","Weight (kg)","Baseline",0,135.7
"SYNTH-OBT2D-26","SYNTH-113","WEIGHT","Weight (kg)","Week 4",4,133.8
"SYNTH-OBT2D-26","SYNTH-113","WEIGHT","Weight (kg)","Week 8",8,131.5
"SYNTH-OBT2D-26","SYNTH-113","WEIGHT","Weight (kg)","Week 12",12,130.5
"SYNTH-OBT2D-26","SYNTH-113","WEIGHT","Weight (kg)","Week 16",16,130
"SYNTH-OBT2D-26","SYNTH-113","WEIGHT","Weight (kg)","Week 20",20,130.1
"SYNTH-OBT2D-26","SYNTH-113","WEIGHT","Weight (kg)","Week 26",26,129.3
"SYNTH-OBT2D-26","SYNTH-114","HBA1C","HbA1c (%)","Baseline",0,8.7
"SYNTH-OBT2D-26","SYNTH-114","HBA1C","HbA1c (%)","Week 4",4,8.4
"SYNTH-OBT2D-26","SYNTH-114","HBA1C","HbA1c (%)","Week 8",8,8
"SYNTH-OBT2D-26","SYNTH-114","HBA1C","HbA1c (%)","Week 12",12,8
"SYNTH-OBT2D-26","SYNTH-114","HBA1C","HbA1c (%)","Week 16",16,7.9
"SYNTH-OBT2D-26","SYNTH-114","HBA1C","HbA1c (%)","Week 20",20,7.8
"SYNTH-OBT2D-26","SYNTH-114","HBA1C","HbA1c (%)","Week 26",26,7.7
"SYNTH-OBT2D-26","SYNTH-114","HEIGHT","Height (cm)","Baseline",0,171
"SYNTH-OBT2D-26","SYNTH-114","WEIGHT","Weight (kg)","Baseline",0,98.5
"SYNTH-OBT2D-26","SYNTH-114","WEIGHT","Weight (kg)","Week 4",4,95.1
"SYNTH-OBT2D-26","SYNTH-114","WEIGHT","Weight (kg)","Week 8",8,93
"SYNTH-OBT2D-26","SYNTH-114","WEIGHT","Weight (kg)","Week 12",12,91.7
"SYNTH-OBT2D-26","SYNTH-114","WEIGHT","Weight (kg)","Week 16",16,89.9
"SYNTH-OBT2D-26","SYNTH-114","WEIGHT","Weight (kg)","Week 20",20,89.1
"SYNTH-OBT2D-26","SYNTH-114","WEIGHT","Weight (kg)","Week 26",26,88.3
"SYNTH-OBT2D-26","SYNTH-115","HBA1C","HbA1c (%)","Baseline",0,7.8
"SYNTH-OBT2D-26","SYNTH-115","HBA1C","HbA1c (%)","Week 4",4,7.6
"SYNTH-OBT2D-26","SYNTH-115","HBA1C","HbA1c (%)","Week 8",8,7.6
"SYNTH-OBT2D-26","SYNTH-115","HBA1C","HbA1c (%)","Week 12",12,7.6
"SYNTH-OBT2D-26","SYNTH-115","HBA1C","HbA1c (%)","Week 16",16,7.6
"SYNTH-OBT2D-26","SYNTH-115","HBA1C","HbA1c (%)","Week 20",20,7.5
"SYNTH-OBT2D-26","SYNTH-115","HBA1C","HbA1c (%)","Week 26",26,7.5
"SYNTH-OBT2D-26","SYNTH-115","HEIGHT","Height (cm)","Baseline",0,162
"SYNTH-OBT2D-26","SYNTH-115","WEIGHT","Weight (kg)","Baseline",0,83
"SYNTH-OBT2D-26","SYNTH-115","WEIGHT","Weight (kg)","Week 4",4,81.7
"SYNTH-OBT2D-26","SYNTH-115","WEIGHT","Weight (kg)","Week 8",8,81.1
"SYNTH-OBT2D-26","SYNTH-115","WEIGHT","Weight (kg)","Week 12",12,80.4
"SYNTH-OBT2D-26","SYNTH-115","WEIGHT","Weight (kg)","Week 16",16,80.2
"SYNTH-OBT2D-26","SYNTH-115","WEIGHT","Weight (kg)","Week 20",20,79.7
"SYNTH-OBT2D-26","SYNTH-115","WEIGHT","Weight (kg)","Week 26",26,79.5
"SYNTH-OBT2D-26","SYNTH-116","HBA1C","HbA1c (%)","Baseline",0,7
"SYNTH-OBT2D-26","SYNTH-116","HBA1C","HbA1c (%)","Week 4",4,6.5
"SYNTH-OBT2D-26","SYNTH-116","HBA1C","HbA1c (%)","Week 8",8,6.2
"SYNTH-OBT2D-26","SYNTH-116","HBA1C","HbA1c (%)","Week 12",12,5.9
"SYNTH-OBT2D-26","SYNTH-116","HBA1C","HbA1c (%)","Week 16",16,5.8
"SYNTH-OBT2D-26","SYNTH-116","HBA1C","HbA1c (%)","Week 20",20,5.6
"SYNTH-OBT2D-26","SYNTH-116","HBA1C","HbA1c (%)","Week 26",26,5.5
"SYNTH-OBT2D-26","SYNTH-116","HEIGHT","Height (cm)","Baseline",0,178
"SYNTH-OBT2D-26","SYNTH-116","WEIGHT","Weight (kg)","Baseline",0,89.6
"SYNTH-OBT2D-26","SYNTH-116","WEIGHT","Weight (kg)","Week 4",4,84.6
"SYNTH-OBT2D-26","SYNTH-116","WEIGHT","Weight (kg)","Week 8",8,81.1
"SYNTH-OBT2D-26","SYNTH-116","WEIGHT","Weight (kg)","Week 12",12,78.6
"SYNTH-OBT2D-26","SYNTH-116","WEIGHT","Weight (kg)","Week 16",16,76.9
"SYNTH-OBT2D-26","SYNTH-116","WEIGHT","Weight (kg)","Week 20",20,75.6
"SYNTH-OBT2D-26","SYNTH-116","WEIGHT","Weight (kg)","Week 26",26,74.2
"SYNTH-OBT2D-26","SYNTH-117","HBA1C","HbA1c (%)","Baseline",0,9.4
"SYNTH-OBT2D-26","SYNTH-117","HBA1C","HbA1c (%)","Week 4",4,9.4
"SYNTH-OBT2D-26","SYNTH-117","HBA1C","HbA1c (%)","Week 8",8,9.3
"SYNTH-OBT2D-26","SYNTH-117","HBA1C","HbA1c (%)","Week 12",12,9.3
"SYNTH-OBT2D-26","SYNTH-117","HBA1C","HbA1c (%)","Week 16",16,9.4
"SYNTH-OBT2D-26","SYNTH-117","HBA1C","HbA1c (%)","Week 20",20,9.3
"SYNTH-OBT2D-26","SYNTH-117","HBA1C","HbA1c (%)","Week 26",26,9.3
"SYNTH-OBT2D-26","SYNTH-117","HEIGHT","Height (cm)","Baseline",0,173
"SYNTH-OBT2D-26","SYNTH-117","WEIGHT","Weight (kg)","Baseline",0,97.9
"SYNTH-OBT2D-26","SYNTH-117","WEIGHT","Weight (kg)","Week 4",4,97.5
"SYNTH-OBT2D-26","SYNTH-117","WEIGHT","Weight (kg)","Week 8",8,97.6
"SYNTH-OBT2D-26","SYNTH-117","WEIGHT","Weight (kg)","Week 12",12,97.3
"SYNTH-OBT2D-26","SYNTH-117","WEIGHT","Weight (kg)","Week 16",16,97.3
"SYNTH-OBT2D-26","SYNTH-117","WEIGHT","Weight (kg)","Week 20",20,96.9
"SYNTH-OBT2D-26","SYNTH-117","WEIGHT","Weight (kg)","Week 26",26,97
"SYNTH-OBT2D-26","SYNTH-118","HBA1C","HbA1c (%)","Baseline",0,7.3
"SYNTH-OBT2D-26","SYNTH-118","HBA1C","HbA1c (%)","Week 4",4,7.1
"SYNTH-OBT2D-26","SYNTH-118","HBA1C","HbA1c (%)","Week 8",8,7
"SYNTH-OBT2D-26","SYNTH-118","HBA1C","HbA1c (%)","Week 12",12,6.9
"SYNTH-OBT2D-26","SYNTH-118","HBA1C","HbA1c (%)","Week 16",16,6.9
"SYNTH-OBT2D-26","SYNTH-118","HBA1C","HbA1c (%)","Week 20",20,6.8
"SYNTH-OBT2D-26","SYNTH-118","HBA1C","HbA1c (%)","Week 26",26,6.8
"SYNTH-OBT2D-26","SYNTH-118","HEIGHT","Height (cm)","Baseline",0,182
"SYNTH-OBT2D-26","SYNTH-118","WEIGHT","Weight (kg)","Baseline",0,95.2
"SYNTH-OBT2D-26","SYNTH-118","WEIGHT","Weight (kg)","Week 4",4,93.6
"SYNTH-OBT2D-26","SYNTH-118","WEIGHT","Weight (kg)","Week 8",8,93.4
"SYNTH-OBT2D-26","SYNTH-118","WEIGHT","Weight (kg)","Week 12",12,92.8
"SYNTH-OBT2D-26","SYNTH-118","WEIGHT","Weight (kg)","Week 16",16,92.1
"SYNTH-OBT2D-26","SYNTH-118","WEIGHT","Weight (kg)","Week 20",20,91.6
"SYNTH-OBT2D-26","SYNTH-118","WEIGHT","Weight (kg)","Week 26",26,91.6
"SYNTH-OBT2D-26","SYNTH-119","HBA1C","HbA1c (%)","Baseline",0,8.5
"SYNTH-OBT2D-26","SYNTH-119","HBA1C","HbA1c (%)","Week 4",4,7.9
"SYNTH-OBT2D-26","SYNTH-119","HBA1C","HbA1c (%)","Week 8",8,7.4
"SYNTH-OBT2D-26","SYNTH-119","HBA1C","HbA1c (%)","Week 12",12,7.2
"SYNTH-OBT2D-26","SYNTH-119","HBA1C","HbA1c (%)","Week 16",16,6.9
"SYNTH-OBT2D-26","SYNTH-119","HBA1C","HbA1c (%)","Week 20",20,6.8
"SYNTH-OBT2D-26","SYNTH-119","HBA1C","HbA1c (%)","Week 26",26,6.6
"SYNTH-OBT2D-26","SYNTH-119","HEIGHT","Height (cm)","Baseline",0,184
"SYNTH-OBT2D-26","SYNTH-119","WEIGHT","Weight (kg)","Baseline",0,108.5
"SYNTH-OBT2D-26","SYNTH-119","WEIGHT","Weight (kg)","Week 4",4,101.9
"SYNTH-OBT2D-26","SYNTH-119","WEIGHT","Weight (kg)","Week 8",8,97.2
"SYNTH-OBT2D-26","SYNTH-119","WEIGHT","Weight (kg)","Week 12",12,93.6
"SYNTH-OBT2D-26","SYNTH-119","WEIGHT","Weight (kg)","Week 16",16,91.4
"SYNTH-OBT2D-26","SYNTH-119","WEIGHT","Weight (kg)","Week 20",20,90.2
"SYNTH-OBT2D-26","SYNTH-119","WEIGHT","Weight (kg)","Week 26",26,88.3
"SYNTH-OBT2D-26","SYNTH-120","HBA1C","HbA1c (%)","Baseline",0,8.2
"SYNTH-OBT2D-26","SYNTH-120","HBA1C","HbA1c (%)","Week 4",4,7.9
"SYNTH-OBT2D-26","SYNTH-120","HBA1C","HbA1c (%)","Week 8",8,7.6
"SYNTH-OBT2D-26","SYNTH-120","HBA1C","HbA1c (%)","Week 12",12,7.5
"SYNTH-OBT2D-26","SYNTH-120","HBA1C","HbA1c (%)","Week 16",16,7.4
"SYNTH-OBT2D-26","SYNTH-120","HBA1C","HbA1c (%)","Week 20",20,7.3
"SYNTH-OBT2D-26","SYNTH-120","HBA1C","HbA1c (%)","Week 26",26,7.2
"SYNTH-OBT2D-26","SYNTH-120","HEIGHT","Height (cm)","Baseline",0,167
"SYNTH-OBT2D-26","SYNTH-120","WEIGHT","Weight (kg)","Baseline",0,92
"SYNTH-OBT2D-26","SYNTH-120","WEIGHT","Weight (kg)","Week 4",4,88.9
"SYNTH-OBT2D-26","SYNTH-120","WEIGHT","Weight (kg)","Week 8",8,87.5
"SYNTH-OBT2D-26","SYNTH-120","WEIGHT","Weight (kg)","Week 12",12,85.7
"SYNTH-OBT2D-26","SYNTH-120","WEIGHT","Weight (kg)","Week 16",16,84.4
"SYNTH-OBT2D-26","SYNTH-120","WEIGHT","Weight (kg)","Week 20",20,84.1
"SYNTH-OBT2D-26","SYNTH-120","WEIGHT","Weight (kg)","Week 26",26,83.2
"SYNTH-OBT2D-26","SYNTH-121","HBA1C","HbA1c (%)","Baseline",0,8.4
"SYNTH-OBT2D-26","SYNTH-121","HBA1C","HbA1c (%)","Week 4",4,7.9
"SYNTH-OBT2D-26","SYNTH-121","HBA1C","HbA1c (%)","Week 8",8,7.6
"SYNTH-OBT2D-26","SYNTH-121","HBA1C","HbA1c (%)","Week 12",12,7.3
"SYNTH-OBT2D-26","SYNTH-121","HBA1C","HbA1c (%)","Week 16",16,7.1
"SYNTH-OBT2D-26","SYNTH-121","HBA1C","HbA1c (%)","Week 20",20,7.1
"SYNTH-OBT2D-26","SYNTH-121","HBA1C","HbA1c (%)","Week 26",26,6.9
"SYNTH-OBT2D-26","SYNTH-121","HEIGHT","Height (cm)","Baseline",0,172
"SYNTH-OBT2D-26","SYNTH-121","WEIGHT","Weight (kg)","Baseline",0,117
"SYNTH-OBT2D-26","SYNTH-121","WEIGHT","Weight (kg)","Week 4",4,112.1
"SYNTH-OBT2D-26","SYNTH-121","WEIGHT","Weight (kg)","Week 8",8,108.9
"SYNTH-OBT2D-26","SYNTH-121","WEIGHT","Weight (kg)","Week 12",12,106.6
"SYNTH-OBT2D-26","SYNTH-121","WEIGHT","Weight (kg)","Week 16",16,104.5
"SYNTH-OBT2D-26","SYNTH-121","WEIGHT","Weight (kg)","Week 20",20,103.1
"SYNTH-OBT2D-26","SYNTH-121","WEIGHT","Weight (kg)","Week 26",26,101.8
"SYNTH-OBT2D-26","SYNTH-122","HBA1C","HbA1c (%)","Baseline",0,7
"SYNTH-OBT2D-26","SYNTH-122","HBA1C","HbA1c (%)","Week 4",4,6.8
"SYNTH-OBT2D-26","SYNTH-122","HBA1C","HbA1c (%)","Week 8",8,6.5
"SYNTH-OBT2D-26","SYNTH-122","HBA1C","HbA1c (%)","Week 12",12,6.6
"SYNTH-OBT2D-26","SYNTH-122","HBA1C","HbA1c (%)","Week 16",16,6.4
"SYNTH-OBT2D-26","SYNTH-122","HBA1C","HbA1c (%)","Week 20",20,6.4
"SYNTH-OBT2D-26","SYNTH-122","HBA1C","HbA1c (%)","Week 26",26,6.3
"SYNTH-OBT2D-26","SYNTH-122","HEIGHT","Height (cm)","Baseline",0,165
"SYNTH-OBT2D-26","SYNTH-122","WEIGHT","Weight (kg)","Baseline",0,82.9
"SYNTH-OBT2D-26","SYNTH-122","WEIGHT","Weight (kg)","Week 4",4,80.8
"SYNTH-OBT2D-26","SYNTH-122","WEIGHT","Weight (kg)","Week 8",8,79.1
"SYNTH-OBT2D-26","SYNTH-122","WEIGHT","Weight (kg)","Week 12",12,78
"SYNTH-OBT2D-26","SYNTH-122","WEIGHT","Weight (kg)","Week 16",16,77.3
"SYNTH-OBT2D-26","SYNTH-122","WEIGHT","Weight (kg)","Week 20",20,76.4
"SYNTH-OBT2D-26","SYNTH-122","WEIGHT","Weight (kg)","Week 26",26,75.9
"SYNTH-OBT2D-26","SYNTH-123","HBA1C","HbA1c (%)","Baseline",0,8.4
"SYNTH-OBT2D-26","SYNTH-123","HBA1C","HbA1c (%)","Week 4",4,8.5
"SYNTH-OBT2D-26","SYNTH-123","HBA1C","HbA1c (%)","Week 8",8,8.7
"SYNTH-OBT2D-26","SYNTH-123","HBA1C","HbA1c (%)","Week 12",12,8.6
"SYNTH-OBT2D-26","SYNTH-123","HBA1C","HbA1c (%)","Week 16",16,8.7
"SYNTH-OBT2D-26","SYNTH-123","HBA1C","HbA1c (%)","Week 20",20,8.8
"SYNTH-OBT2D-26","SYNTH-123","HBA1C","HbA1c (%)","Week 26",26,8.7
"SYNTH-OBT2D-26","SYNTH-123","HEIGHT","Height (cm)","Baseline",0,164
"SYNTH-OBT2D-26","SYNTH-123","WEIGHT","Weight (kg)","Baseline",0,88.1
"SYNTH-OBT2D-26","SYNTH-123","WEIGHT","Weight (kg)","Week 4",4,88.8
"SYNTH-OBT2D-26","SYNTH-123","WEIGHT","Weight (kg)","Week 8",8,89.6
"SYNTH-OBT2D-26","SYNTH-123","WEIGHT","Weight (kg)","Week 12",12,89.7
"SYNTH-OBT2D-26","SYNTH-123","WEIGHT","Weight (kg)","Week 16",16,90
"SYNTH-OBT2D-26","SYNTH-123","WEIGHT","Weight (kg)","Week 20",20,90.6
"SYNTH-OBT2D-26","SYNTH-123","WEIGHT","Weight (kg)","Week 26",26,90.5
"SYNTH-OBT2D-26","SYNTH-124","HBA1C","HbA1c (%)","Baseline",0,7
"SYNTH-OBT2D-26","SYNTH-124","HBA1C","HbA1c (%)","Week 4",4,6.5
"SYNTH-OBT2D-26","SYNTH-124","HBA1C","HbA1c (%)","Week 8",8,6.2
"SYNTH-OBT2D-26","SYNTH-124","HBA1C","HbA1c (%)","Week 12",12,5.9
"SYNTH-OBT2D-26","SYNTH-124","HBA1C","HbA1c (%)","Week 16",16,5.6
"SYNTH-OBT2D-26","SYNTH-124","HBA1C","HbA1c (%)","Week 20",20,5.6
"SYNTH-OBT2D-26","SYNTH-124","HBA1C","HbA1c (%)","Week 26",26,5.5
"SYNTH-OBT2D-26","SYNTH-124","HEIGHT","Height (cm)","Baseline",0,184
"SYNTH-OBT2D-26","SYNTH-124","WEIGHT","Weight (kg)","Baseline",0,98.5
"SYNTH-OBT2D-26","SYNTH-124","WEIGHT","Weight (kg)","Week 4",4,93.9
"SYNTH-OBT2D-26","SYNTH-124","WEIGHT","Weight (kg)","Week 8",8,90.8
"SYNTH-OBT2D-26","SYNTH-124","WEIGHT","Weight (kg)","Week 12",12,88.2
"SYNTH-OBT2D-26","SYNTH-124","WEIGHT","Weight (kg)","Week 16",16,86.7
"SYNTH-OBT2D-26","SYNTH-124","WEIGHT","Weight (kg)","Week 20",20,85.3
"SYNTH-OBT2D-26","SYNTH-124","WEIGHT","Weight (kg)","Week 26",26,84
"SYNTH-OBT2D-26","SYNTH-125","HBA1C","HbA1c (%)","Baseline",0,8.6
"SYNTH-OBT2D-26","SYNTH-125","HBA1C","HbA1c (%)","Week 4",4,8.5
"SYNTH-OBT2D-26","SYNTH-125","HBA1C","HbA1c (%)","Week 8",8,8.4
"SYNTH-OBT2D-26","SYNTH-125","HBA1C","HbA1c (%)","Week 12",12,8.5
"SYNTH-OBT2D-26","SYNTH-125","HBA1C","HbA1c (%)","Week 16",16,8.4
"SYNTH-OBT2D-26","SYNTH-125","HBA1C","HbA1c (%)","Week 20",20,8.2
"SYNTH-OBT2D-26","SYNTH-125","HBA1C","HbA1c (%)","Week 26",26,8.3
"SYNTH-OBT2D-26","SYNTH-125","HEIGHT","Height (cm)","Baseline",0,161
"SYNTH-OBT2D-26","SYNTH-125","WEIGHT","Weight (kg)","Baseline",0,89.5
"SYNTH-OBT2D-26","SYNTH-125","WEIGHT","Weight (kg)","Week 4",4,88.8
"SYNTH-OBT2D-26","SYNTH-125","WEIGHT","Weight (kg)","Week 8",8,88
"SYNTH-OBT2D-26","SYNTH-125","WEIGHT","Weight (kg)","Week 12",12,88
"SYNTH-OBT2D-26","SYNTH-125","WEIGHT","Weight (kg)","Week 16",16,87.4
"SYNTH-OBT2D-26","SYNTH-125","WEIGHT","Weight (kg)","Week 20",20,87
"SYNTH-OBT2D-26","SYNTH-125","WEIGHT","Weight (kg)","Week 26",26,87.1
"SYNTH-OBT2D-26","SYNTH-126","HBA1C","HbA1c (%)","Baseline",0,7.9
"SYNTH-OBT2D-26","SYNTH-126","HBA1C","HbA1c (%)","Week 4",4,7.4
"SYNTH-OBT2D-26","SYNTH-126","HBA1C","HbA1c (%)","Week 8",8,7
"SYNTH-OBT2D-26","SYNTH-126","HBA1C","HbA1c (%)","Week 12",12,6.8
"SYNTH-OBT2D-26","SYNTH-126","HBA1C","HbA1c (%)","Week 16",16,6.6
"SYNTH-OBT2D-26","SYNTH-126","HBA1C","HbA1c (%)","Week 20",20,6.5
"SYNTH-OBT2D-26","SYNTH-126","HBA1C","HbA1c (%)","Week 26",26,6.3
"SYNTH-OBT2D-26","SYNTH-126","HEIGHT","Height (cm)","Baseline",0,173
"SYNTH-OBT2D-26","SYNTH-126","WEIGHT","Weight (kg)","Baseline",0,103.3
"SYNTH-OBT2D-26","SYNTH-126","WEIGHT","Weight (kg)","Week 4",4,97.8
"SYNTH-OBT2D-26","SYNTH-126","WEIGHT","Weight (kg)","Week 8",8,93.9
"SYNTH-OBT2D-26","SYNTH-126","WEIGHT","Weight (kg)","Week 12",12,91.6
"SYNTH-OBT2D-26","SYNTH-126","WEIGHT","Weight (kg)","Week 16",16,89.8
"SYNTH-OBT2D-26","SYNTH-126","WEIGHT","Weight (kg)","Week 20",20,88.2
"SYNTH-OBT2D-26","SYNTH-126","WEIGHT","Weight (kg)","Week 26",26,87.1
"SYNTH-OBT2D-26","SYNTH-127","HBA1C","HbA1c (%)","Baseline",0,7.8
"SYNTH-OBT2D-26","SYNTH-127","HBA1C","HbA1c (%)","Week 4",4,7.4
"SYNTH-OBT2D-26","SYNTH-127","HBA1C","HbA1c (%)","Week 8",8,7.1
"SYNTH-OBT2D-26","SYNTH-127","HBA1C","HbA1c (%)","Week 12",12,6.9
"SYNTH-OBT2D-26","SYNTH-127","HBA1C","HbA1c (%)","Week 16",16,6.7
"SYNTH-OBT2D-26","SYNTH-127","HBA1C","HbA1c (%)","Week 20",20,6.5
"SYNTH-OBT2D-26","SYNTH-127","HBA1C","HbA1c (%)","Week 26",26,6.5
"SYNTH-OBT2D-26","SYNTH-127","HEIGHT","Height (cm)","Baseline",0,164
"SYNTH-OBT2D-26","SYNTH-127","WEIGHT","Weight (kg)","Baseline",0,90.7
"SYNTH-OBT2D-26","SYNTH-127","WEIGHT","Weight (kg)","Week 4",4,86.8
"SYNTH-OBT2D-26","SYNTH-127","WEIGHT","Weight (kg)","Week 8",8,84.3
"SYNTH-OBT2D-26","SYNTH-127","WEIGHT","Weight (kg)","Week 12",12,82
"SYNTH-OBT2D-26","SYNTH-127","WEIGHT","Weight (kg)","Week 16",16,80.4
"SYNTH-OBT2D-26","SYNTH-127","WEIGHT","Weight (kg)","Week 20",20,79.7
"SYNTH-OBT2D-26","SYNTH-127","WEIGHT","Weight (kg)","Week 26",26,78.5
"SYNTH-OBT2D-26","SYNTH-128","HBA1C","HbA1c (%)","Baseline",0,8.6
"SYNTH-OBT2D-26","SYNTH-128","HBA1C","HbA1c (%)","Week 4",4,8.3
"SYNTH-OBT2D-26","SYNTH-128","HBA1C","HbA1c (%)","Week 8",8,8
"SYNTH-OBT2D-26","SYNTH-128","HBA1C","HbA1c (%)","Week 12",12,7.9
"SYNTH-OBT2D-26","SYNTH-128","HBA1C","HbA1c (%)","Week 16",16,7.8
"SYNTH-OBT2D-26","SYNTH-128","HBA1C","HbA1c (%)","Week 20",20,7.6
"SYNTH-OBT2D-26","SYNTH-128","HBA1C","HbA1c (%)","Week 26",26,7.6
"SYNTH-OBT2D-26","SYNTH-128","HEIGHT","Height (cm)","Baseline",0,164
"SYNTH-OBT2D-26","SYNTH-128","WEIGHT","Weight (kg)","Baseline",0,99.7
"SYNTH-OBT2D-26","SYNTH-128","WEIGHT","Weight (kg)","Week 4",4,96.6
"SYNTH-OBT2D-26","SYNTH-128","WEIGHT","Weight (kg)","Week 8",8,94.2
"SYNTH-OBT2D-26","SYNTH-128","WEIGHT","Weight (kg)","Week 12",12,93.5
"SYNTH-OBT2D-26","SYNTH-128","WEIGHT","Weight (kg)","Week 16",16,92.1
"SYNTH-OBT2D-26","SYNTH-128","WEIGHT","Weight (kg)","Week 20",20,91.5
"SYNTH-OBT2D-26","SYNTH-128","WEIGHT","Weight (kg)","Week 26",26,90.6
"SYNTH-OBT2D-26","SYNTH-129","HBA1C","HbA1c (%)","Baseline",0,7.8
"SYNTH-OBT2D-26","SYNTH-129","HBA1C","HbA1c (%)","Week 4",4,7.3
"SYNTH-OBT2D-26","SYNTH-129","HBA1C","HbA1c (%)","Week 8",8,7.1
"SYNTH-OBT2D-26","SYNTH-129","HBA1C","HbA1c (%)","Week 12",12,6.9
"SYNTH-OBT2D-26","SYNTH-129","HBA1C","HbA1c (%)","Week 16",16,6.4
"SYNTH-OBT2D-26","SYNTH-129","HBA1C","HbA1c (%)","Week 20",20,6.4
"SYNTH-OBT2D-26","SYNTH-129","HBA1C","HbA1c (%)","Week 26",26,6.3
"SYNTH-OBT2D-26","SYNTH-129","HEIGHT","Height (cm)","Baseline",0,175
"SYNTH-OBT2D-26","SYNTH-129","WEIGHT","Weight (kg)","Baseline",0,106.1
"SYNTH-OBT2D-26","SYNTH-129","WEIGHT","Weight (kg)","Week 4",4,100.2
"SYNTH-OBT2D-26","SYNTH-129","WEIGHT","Weight (kg)","Week 8",8,96.1
"SYNTH-OBT2D-26","SYNTH-129","WEIGHT","Weight (kg)","Week 12",12,92.6
"SYNTH-OBT2D-26","SYNTH-129","WEIGHT","Weight (kg)","Week 16",16,90.9
"SYNTH-OBT2D-26","SYNTH-129","WEIGHT","Weight (kg)","Week 20",20,89.4
"SYNTH-OBT2D-26","SYNTH-129","WEIGHT","Weight (kg)","Week 26",26,88.2
"SYNTH-OBT2D-26","SYNTH-130","HBA1C","HbA1c (%)","Baseline",0,7.8
"SYNTH-OBT2D-26","SYNTH-130","HBA1C","HbA1c (%)","Week 4",4,7.4
"SYNTH-OBT2D-26","SYNTH-130","HBA1C","HbA1c (%)","Week 8",8,7.1
"SYNTH-OBT2D-26","SYNTH-130","HBA1C","HbA1c (%)","Week 12",12,6.8
"SYNTH-OBT2D-26","SYNTH-130","HBA1C","HbA1c (%)","Week 16",16,6.8
"SYNTH-OBT2D-26","SYNTH-130","HBA1C","HbA1c (%)","Week 20",20,6.7
"SYNTH-OBT2D-26","SYNTH-130","HBA1C","HbA1c (%)","Week 26",26,6.6
"SYNTH-OBT2D-26","SYNTH-130","HEIGHT","Height (cm)","Baseline",0,163
"SYNTH-OBT2D-26","SYNTH-130","WEIGHT","Weight (kg)","Baseline",0,97.6
"SYNTH-OBT2D-26","SYNTH-130","WEIGHT","Weight (kg)","Week 4",4,93
"SYNTH-OBT2D-26","SYNTH-130","WEIGHT","Weight (kg)","Week 8",8,90
"SYNTH-OBT2D-26","SYNTH-130","WEIGHT","Weight (kg)","Week 12",12,87.8
"SYNTH-OBT2D-26","SYNTH-130","WEIGHT","Weight (kg)","Week 16",16,86.6
"SYNTH-OBT2D-26","SYNTH-130","WEIGHT","Weight (kg)","Week 20",20,85.4
"SYNTH-OBT2D-26","SYNTH-130","WEIGHT","Weight (kg)","Week 26",26,83.9
"SYNTH-OBT2D-26","SYNTH-131","HBA1C","HbA1c (%)","Baseline",0,8
"SYNTH-OBT2D-26","SYNTH-131","HBA1C","HbA1c (%)","Week 4",4,7.9
"SYNTH-OBT2D-26","SYNTH-131","HBA1C","HbA1c (%)","Week 8",8,8
"SYNTH-OBT2D-26","SYNTH-131","HBA1C","HbA1c (%)","Week 12",12,8.1
"SYNTH-OBT2D-26","SYNTH-131","HBA1C","HbA1c (%)","Week 16",16,8
"SYNTH-OBT2D-26","SYNTH-131","HBA1C","HbA1c (%)","Week 20",20,8
"SYNTH-OBT2D-26","SYNTH-131","HBA1C","HbA1c (%)","Week 26",26,8
"SYNTH-OBT2D-26","SYNTH-131","HEIGHT","Height (cm)","Baseline",0,170
"SYNTH-OBT2D-26","SYNTH-131","WEIGHT","Weight (kg)","Baseline",0,90.7
"SYNTH-OBT2D-26","SYNTH-131","WEIGHT","Weight (kg)","Week 4",4,89.8
"SYNTH-OBT2D-26","SYNTH-131","WEIGHT","Weight (kg)","Week 8",8,88.5
"SYNTH-OBT2D-26","SYNTH-131","WEIGHT","Weight (kg)","Week 12",12,88.3
"SYNTH-OBT2D-26","SYNTH-131","WEIGHT","Weight (kg)","Week 16",16,87.9
"SYNTH-OBT2D-26","SYNTH-131","WEIGHT","Weight (kg)","Week 20",20,87.9
"SYNTH-OBT2D-26","SYNTH-131","WEIGHT","Weight (kg)","Week 26",26,87.5
"SYNTH-OBT2D-26","SYNTH-132","HBA1C","HbA1c (%)","Baseline",0,8.9
"SYNTH-OBT2D-26","SYNTH-132","HBA1C","HbA1c (%)","Week 4",4,9
"SYNTH-OBT2D-26","SYNTH-132","HBA1C","HbA1c (%)","Week 8",8,9.1
"SYNTH-OBT2D-26","SYNTH-132","HBA1C","HbA1c (%)","Week 12",12,9
"SYNTH-OBT2D-26","SYNTH-132","HBA1C","HbA1c (%)","Week 16",16,9.1
"SYNTH-OBT2D-26","SYNTH-132","HBA1C","HbA1c (%)","Week 20",20,9
"SYNTH-OBT2D-26","SYNTH-132","HBA1C","HbA1c (%)","Week 26",26,9.1
"SYNTH-OBT2D-26","SYNTH-132","HEIGHT","Height (cm)","Baseline",0,189
"SYNTH-OBT2D-26","SYNTH-132","WEIGHT","Weight (kg)","Baseline",0,136.5
"SYNTH-OBT2D-26","SYNTH-132","WEIGHT","Weight (kg)","Week 4",4,137.3
"SYNTH-OBT2D-26","SYNTH-132","WEIGHT","Weight (kg)","Week 8",8,137.9
"SYNTH-OBT2D-26","SYNTH-132","WEIGHT","Weight (kg)","Week 12",12,137.9
"SYNTH-OBT2D-26","SYNTH-132","WEIGHT","Weight (kg)","Week 16",16,138.1
"SYNTH-OBT2D-26","SYNTH-132","WEIGHT","Weight (kg)","Week 20",20,138.8
"SYNTH-OBT2D-26","SYNTH-132","WEIGHT","Weight (kg)","Week 26",26,138.7
"SYNTH-OBT2D-26","SYNTH-133","HBA1C","HbA1c (%)","Baseline",0,9.3
"SYNTH-OBT2D-26","SYNTH-133","HBA1C","HbA1c (%)","Week 4",4,9.2
"SYNTH-OBT2D-26","SYNTH-133","HBA1C","HbA1c (%)","Week 8",8,9.2
"SYNTH-OBT2D-26","SYNTH-133","HBA1C","HbA1c (%)","Week 12",12,9.1
"SYNTH-OBT2D-26","SYNTH-133","HBA1C","HbA1c (%)","Week 16",16,9
"SYNTH-OBT2D-26","SYNTH-133","HBA1C","HbA1c (%)","Week 20",20,9
"SYNTH-OBT2D-26","SYNTH-133","HBA1C","HbA1c (%)","Week 26",26,9
"SYNTH-OBT2D-26","SYNTH-133","HEIGHT","Height (cm)","Baseline",0,161
"SYNTH-OBT2D-26","SYNTH-133","WEIGHT","Weight (kg)","Baseline",0,75.5
"SYNTH-OBT2D-26","SYNTH-133","WEIGHT","Weight (kg)","Week 4",4,74.8
"SYNTH-OBT2D-26","SYNTH-133","WEIGHT","Weight (kg)","Week 8",8,74.8
"SYNTH-OBT2D-26","SYNTH-133","WEIGHT","Weight (kg)","Week 12",12,73.9
"SYNTH-OBT2D-26","SYNTH-133","WEIGHT","Weight (kg)","Week 16",16,73.8
"SYNTH-OBT2D-26","SYNTH-133","WEIGHT","Weight (kg)","Week 20",20,73.6
"SYNTH-OBT2D-26","SYNTH-133","WEIGHT","Weight (kg)","Week 26",26,73.6
"SYNTH-OBT2D-26","SYNTH-134","HBA1C","HbA1c (%)","Baseline",0,10
"SYNTH-OBT2D-26","SYNTH-134","HBA1C","HbA1c (%)","Week 4",4,10.1
"SYNTH-OBT2D-26","SYNTH-134","HBA1C","HbA1c (%)","Week 8",8,10
"SYNTH-OBT2D-26","SYNTH-134","HBA1C","HbA1c (%)","Week 12",12,9.9
"SYNTH-OBT2D-26","SYNTH-134","HBA1C","HbA1c (%)","Week 16",16,9.9
"SYNTH-OBT2D-26","SYNTH-134","HBA1C","HbA1c (%)","Week 20",20,9.9
"SYNTH-OBT2D-26","SYNTH-134","HBA1C","HbA1c (%)","Week 26",26,9.9
"SYNTH-OBT2D-26","SYNTH-134","HEIGHT","Height (cm)","Baseline",0,179
"SYNTH-OBT2D-26","SYNTH-134","WEIGHT","Weight (kg)","Baseline",0,118.9
"SYNTH-OBT2D-26","SYNTH-134","WEIGHT","Weight (kg)","Week 4",4,117.8
"SYNTH-OBT2D-26","SYNTH-134","WEIGHT","Weight (kg)","Week 8",8,116.5
"SYNTH-OBT2D-26","SYNTH-134","WEIGHT","Weight (kg)","Week 12",12,115.7
"SYNTH-OBT2D-26","SYNTH-134","WEIGHT","Weight (kg)","Week 16",16,116
"SYNTH-OBT2D-26","SYNTH-134","WEIGHT","Weight (kg)","Week 20",20,115.2
"SYNTH-OBT2D-26","SYNTH-134","WEIGHT","Weight (kg)","Week 26",26,114.9
"SYNTH-OBT2D-26","SYNTH-135","HBA1C","HbA1c (%)","Baseline",0,8
"SYNTH-OBT2D-26","SYNTH-135","HBA1C","HbA1c (%)","Week 4",4,7.7
"SYNTH-OBT2D-26","SYNTH-135","HBA1C","HbA1c (%)","Week 8",8,7.6
"SYNTH-OBT2D-26","SYNTH-135","HBA1C","HbA1c (%)","Week 12",12,7.5
"SYNTH-OBT2D-26","SYNTH-135","HBA1C","HbA1c (%)","Week 16",16,7.4
"SYNTH-OBT2D-26","SYNTH-135","HBA1C","HbA1c (%)","Week 20",20,7.3
"SYNTH-OBT2D-26","SYNTH-135","HBA1C","HbA1c (%)","Week 26",26,7.2
"SYNTH-OBT2D-26","SYNTH-135","HEIGHT","Height (cm)","Baseline",0,169
"SYNTH-OBT2D-26","SYNTH-135","WEIGHT","Weight (kg)","Baseline",0,97.6
"SYNTH-OBT2D-26","SYNTH-135","WEIGHT","Weight (kg)","Week 4",4,94.2
"SYNTH-OBT2D-26","SYNTH-135","WEIGHT","Weight (kg)","Week 8",8,92
"SYNTH-OBT2D-26","SYNTH-135","WEIGHT","Weight (kg)","Week 12",12,90.8
"SYNTH-OBT2D-26","SYNTH-135","WEIGHT","Weight (kg)","Week 16",16,90
"SYNTH-OBT2D-26","SYNTH-135","WEIGHT","Weight (kg)","Week 20",20,88.9
"SYNTH-OBT2D-26","SYNTH-135","WEIGHT","Weight (kg)","Week 26",26,88.3
"SYNTH-OBT2D-26","SYNTH-136","HBA1C","HbA1c (%)","Baseline",0,8.4
"SYNTH-OBT2D-26","SYNTH-136","HBA1C","HbA1c (%)","Week 4",4,7.9
"SYNTH-OBT2D-26","SYNTH-136","HBA1C","HbA1c (%)","Week 8",8,7.4
"SYNTH-OBT2D-26","SYNTH-136","HBA1C","HbA1c (%)","Week 12",12,7.4
"SYNTH-OBT2D-26","SYNTH-136","HBA1C","HbA1c (%)","Week 16",16,7
"SYNTH-OBT2D-26","SYNTH-136","HBA1C","HbA1c (%)","Week 20",20,7
"SYNTH-OBT2D-26","SYNTH-136","HBA1C","HbA1c (%)","Week 26",26,6.8
"SYNTH-OBT2D-26","SYNTH-136","HEIGHT","Height (cm)","Baseline",0,174
"SYNTH-OBT2D-26","SYNTH-136","WEIGHT","Weight (kg)","Baseline",0,101.1
"SYNTH-OBT2D-26","SYNTH-136","WEIGHT","Weight (kg)","Week 4",4,95.9
"SYNTH-OBT2D-26","SYNTH-136","WEIGHT","Weight (kg)","Week 8",8,92
"SYNTH-OBT2D-26","SYNTH-136","WEIGHT","Weight (kg)","Week 12",12,89.7
"SYNTH-OBT2D-26","SYNTH-136","WEIGHT","Weight (kg)","Week 16",16,87.6
"SYNTH-OBT2D-26","SYNTH-136","WEIGHT","Weight (kg)","Week 20",20,85.9
"SYNTH-OBT2D-26","SYNTH-136","WEIGHT","Weight (kg)","Week 26",26,84.9
"SYNTH-OBT2D-26","SYNTH-137","HBA1C","HbA1c (%)","Baseline",0,8.6
"SYNTH-OBT2D-26","SYNTH-137","HBA1C","HbA1c (%)","Week 4",4,8.3
"SYNTH-OBT2D-26","SYNTH-137","HBA1C","HbA1c (%)","Week 8",8,8.1
"SYNTH-OBT2D-26","SYNTH-137","HBA1C","HbA1c (%)","Week 12",12,7.9
"SYNTH-OBT2D-26","SYNTH-137","HBA1C","HbA1c (%)","Week 16",16,7.9
"SYNTH-OBT2D-26","SYNTH-137","HBA1C","HbA1c (%)","Week 20",20,7.6
"SYNTH-OBT2D-26","SYNTH-137","HBA1C","HbA1c (%)","Week 26",26,7.6
"SYNTH-OBT2D-26","SYNTH-137","HEIGHT","Height (cm)","Baseline",0,169
"SYNTH-OBT2D-26","SYNTH-137","WEIGHT","Weight (kg)","Baseline",0,98.8
"SYNTH-OBT2D-26","SYNTH-137","WEIGHT","Weight (kg)","Week 4",4,95.7
"SYNTH-OBT2D-26","SYNTH-137","WEIGHT","Weight (kg)","Week 8",8,93.9
"SYNTH-OBT2D-26","SYNTH-137","WEIGHT","Weight (kg)","Week 12",12,92.3
"SYNTH-OBT2D-26","SYNTH-137","WEIGHT","Weight (kg)","Week 16",16,91.1
"SYNTH-OBT2D-26","SYNTH-137","WEIGHT","Weight (kg)","Week 20",20,90.3
"SYNTH-OBT2D-26","SYNTH-137","WEIGHT","Weight (kg)","Week 26",26,89.6
"SYNTH-OBT2D-26","SYNTH-138","HBA1C","HbA1c (%)","Baseline",0,8
"SYNTH-OBT2D-26","SYNTH-138","HBA1C","HbA1c (%)","Week 4",4,7.7
"SYNTH-OBT2D-26","SYNTH-138","HBA1C","HbA1c (%)","Week 8",8,7.4
"SYNTH-OBT2D-26","SYNTH-138","HBA1C","HbA1c (%)","Week 12",12,7.2
"SYNTH-OBT2D-26","SYNTH-138","HBA1C","HbA1c (%)","Week 16",16,7.1
"SYNTH-OBT2D-26","SYNTH-138","HBA1C","HbA1c (%)","Week 20",20,7.1
"SYNTH-OBT2D-26","SYNTH-138","HBA1C","HbA1c (%)","Week 26",26,7
"SYNTH-OBT2D-26","SYNTH-138","HEIGHT","Height (cm)","Baseline",0,166
"SYNTH-OBT2D-26","SYNTH-138","WEIGHT","Weight (kg)","Baseline",0,103.7
"SYNTH-OBT2D-26","SYNTH-138","WEIGHT","Weight (kg)","Week 4",4,100.9
"SYNTH-OBT2D-26","SYNTH-138","WEIGHT","Weight (kg)","Week 8",8,98.2
"SYNTH-OBT2D-26","SYNTH-138","WEIGHT","Weight (kg)","Week 12",12,97
"SYNTH-OBT2D-26","SYNTH-138","WEIGHT","Weight (kg)","Week 16",16,95.7
"SYNTH-OBT2D-26","SYNTH-138","WEIGHT","Weight (kg)","Week 20",20,94.8
"SYNTH-OBT2D-26","SYNTH-138","WEIGHT","Weight (kg)","Week 26",26,94.2
"SYNTH-OBT2D-26","SYNTH-139","HBA1C","HbA1c (%)","Baseline",0,7.4
"SYNTH-OBT2D-26","SYNTH-139","HBA1C","HbA1c (%)","Week 4",4,7.4
"SYNTH-OBT2D-26","SYNTH-139","HBA1C","HbA1c (%)","Week 8",8,7.3
"SYNTH-OBT2D-26","SYNTH-139","HBA1C","HbA1c (%)","Week 12",12,7.3
"SYNTH-OBT2D-26","SYNTH-139","HBA1C","HbA1c (%)","Week 16",16,7.4
"SYNTH-OBT2D-26","SYNTH-139","HBA1C","HbA1c (%)","Week 20",20,7.4
"SYNTH-OBT2D-26","SYNTH-139","HBA1C","HbA1c (%)","Week 26",26,7.4
"SYNTH-OBT2D-26","SYNTH-139","HEIGHT","Height (cm)","Baseline",0,162
"SYNTH-OBT2D-26","SYNTH-139","WEIGHT","Weight (kg)","Baseline",0,88
"SYNTH-OBT2D-26","SYNTH-139","WEIGHT","Weight (kg)","Week 4",4,88.2
"SYNTH-OBT2D-26","SYNTH-139","WEIGHT","Weight (kg)","Week 8",8,87.8
"SYNTH-OBT2D-26","SYNTH-139","WEIGHT","Weight (kg)","Week 12",12,87.8
"SYNTH-OBT2D-26","SYNTH-139","WEIGHT","Weight (kg)","Week 16",16,88.1
"SYNTH-OBT2D-26","SYNTH-139","WEIGHT","Weight (kg)","Week 20",20,87.9
"SYNTH-OBT2D-26","SYNTH-139","WEIGHT","Weight (kg)","Week 26",26,87.7
"SYNTH-OBT2D-26","SYNTH-140","HBA1C","HbA1c (%)","Baseline",0,8.8
"SYNTH-OBT2D-26","SYNTH-140","HBA1C","HbA1c (%)","Week 4",4,8.3
"SYNTH-OBT2D-26","SYNTH-140","HBA1C","HbA1c (%)","Week 8",8,7.7
"SYNTH-OBT2D-26","SYNTH-140","HBA1C","HbA1c (%)","Week 12",12,7.5
"SYNTH-OBT2D-26","SYNTH-140","HBA1C","HbA1c (%)","Week 16",16,7
"SYNTH-OBT2D-26","SYNTH-140","HBA1C","HbA1c (%)","Week 20",20,7
"SYNTH-OBT2D-26","SYNTH-140","HBA1C","HbA1c (%)","Week 26",26,6.8
"SYNTH-OBT2D-26","SYNTH-140","HEIGHT","Height (cm)","Baseline",0,169
"SYNTH-OBT2D-26","SYNTH-140","WEIGHT","Weight (kg)","Baseline",0,93
"SYNTH-OBT2D-26","SYNTH-140","WEIGHT","Weight (kg)","Week 4",4,88.1
"SYNTH-OBT2D-26","SYNTH-140","WEIGHT","Weight (kg)","Week 8",8,84.3
"SYNTH-OBT2D-26","SYNTH-140","WEIGHT","Weight (kg)","Week 12",12,81.3
"SYNTH-OBT2D-26","SYNTH-140","WEIGHT","Weight (kg)","Week 16",16,79.7
"SYNTH-OBT2D-26","SYNTH-140","WEIGHT","Weight (kg)","Week 20",20,78
"SYNTH-OBT2D-26","SYNTH-140","WEIGHT","Weight (kg)","Week 26",26,76.7
"SYNTH-OBT2D-26","SYNTH-141","HBA1C","HbA1c (%)","Baseline",0,8.6
"SYNTH-OBT2D-26","SYNTH-141","HBA1C","HbA1c (%)","Week 4",4,8.1
"SYNTH-OBT2D-26","SYNTH-141","HBA1C","HbA1c (%)","Week 8",8,7.9
"SYNTH-OBT2D-26","SYNTH-141","HBA1C","HbA1c (%)","Week 12",12,7.6
"SYNTH-OBT2D-26","SYNTH-141","HBA1C","HbA1c (%)","Week 16",16,7.5
"SYNTH-OBT2D-26","SYNTH-141","HBA1C","HbA1c (%)","Week 20",20,7.5
"SYNTH-OBT2D-26","SYNTH-141","HBA1C","HbA1c (%)","Week 26",26,7.4
"SYNTH-OBT2D-26","SYNTH-141","HEIGHT","Height (cm)","Baseline",0,174
"SYNTH-OBT2D-26","SYNTH-141","WEIGHT","Weight (kg)","Baseline",0,104.5
"SYNTH-OBT2D-26","SYNTH-141","WEIGHT","Weight (kg)","Week 4",4,100.5
"SYNTH-OBT2D-26","SYNTH-141","WEIGHT","Weight (kg)","Week 8",8,98.8
"SYNTH-OBT2D-26","SYNTH-141","WEIGHT","Weight (kg)","Week 12",12,96.9
"SYNTH-OBT2D-26","SYNTH-141","WEIGHT","Weight (kg)","Week 16",16,95.1
"SYNTH-OBT2D-26","SYNTH-141","WEIGHT","Weight (kg)","Week 20",20,94.4
"SYNTH-OBT2D-26","SYNTH-141","WEIGHT","Weight (kg)","Week 26",26,93.1
"SYNTH-OBT2D-26","SYNTH-142","HBA1C","HbA1c (%)","Baseline",0,7.4
"SYNTH-OBT2D-26","SYNTH-142","HBA1C","HbA1c (%)","Week 4",4,7.2
"SYNTH-OBT2D-26","SYNTH-142","HBA1C","HbA1c (%)","Week 8",8,7.1
"SYNTH-OBT2D-26","SYNTH-142","HBA1C","HbA1c (%)","Week 12",12,6.9
"SYNTH-OBT2D-26","SYNTH-142","HBA1C","HbA1c (%)","Week 16",16,6.9
"SYNTH-OBT2D-26","SYNTH-142","HBA1C","HbA1c (%)","Week 20",20,6.8
"SYNTH-OBT2D-26","SYNTH-142","HBA1C","HbA1c (%)","Week 26",26,6.8
"SYNTH-OBT2D-26","SYNTH-142","HEIGHT","Height (cm)","Baseline",0,170
"SYNTH-OBT2D-26","SYNTH-142","WEIGHT","Weight (kg)","Baseline",0,90.4
"SYNTH-OBT2D-26","SYNTH-142","WEIGHT","Weight (kg)","Week 4",4,88.7
"SYNTH-OBT2D-26","SYNTH-142","WEIGHT","Weight (kg)","Week 8",8,88
"SYNTH-OBT2D-26","SYNTH-142","WEIGHT","Weight (kg)","Week 12",12,88
"SYNTH-OBT2D-26","SYNTH-142","WEIGHT","Weight (kg)","Week 16",16,87
"SYNTH-OBT2D-26","SYNTH-142","WEIGHT","Weight (kg)","Week 20",20,86.6
"SYNTH-OBT2D-26","SYNTH-142","WEIGHT","Weight (kg)","Week 26",26,86.2
"SYNTH-OBT2D-26","SYNTH-143","HBA1C","HbA1c (%)","Baseline",0,7.5
"SYNTH-OBT2D-26","SYNTH-143","HBA1C","HbA1c (%)","Week 4",4,7.3
"SYNTH-OBT2D-26","SYNTH-143","HBA1C","HbA1c (%)","Week 8",8,7.1
"SYNTH-OBT2D-26","SYNTH-143","HBA1C","HbA1c (%)","Week 12",12,7
"SYNTH-OBT2D-26","SYNTH-143","HBA1C","HbA1c (%)","Week 16",16,6.9
"SYNTH-OBT2D-26","SYNTH-143","HBA1C","HbA1c (%)","Week 20",20,6.9
"SYNTH-OBT2D-26","SYNTH-143","HBA1C","HbA1c (%)","Week 26",26,6.8
"SYNTH-OBT2D-26","SYNTH-143","HEIGHT","Height (cm)","Baseline",0,164
"SYNTH-OBT2D-26","SYNTH-143","WEIGHT","Weight (kg)","Baseline",0,89.3
"SYNTH-OBT2D-26","SYNTH-143","WEIGHT","Weight (kg)","Week 4",4,86.6
"SYNTH-OBT2D-26","SYNTH-143","WEIGHT","Weight (kg)","Week 8",8,84.9
"SYNTH-OBT2D-26","SYNTH-143","WEIGHT","Weight (kg)","Week 12",12,83.4
"SYNTH-OBT2D-26","SYNTH-143","WEIGHT","Weight (kg)","Week 16",16,82.9
"SYNTH-OBT2D-26","SYNTH-143","WEIGHT","Weight (kg)","Week 20",20,81.8
"SYNTH-OBT2D-26","SYNTH-143","WEIGHT","Weight (kg)","Week 26",26,80.9
"SYNTH-OBT2D-26","SYNTH-144","HBA1C","HbA1c (%)","Baseline",0,8.3
"SYNTH-OBT2D-26","SYNTH-144","HBA1C","HbA1c (%)","Week 4",4,7.9
"SYNTH-OBT2D-26","SYNTH-144","HBA1C","HbA1c (%)","Week 8",8,7.6
"SYNTH-OBT2D-26","SYNTH-144","HBA1C","HbA1c (%)","Week 12",12,7.3
"SYNTH-OBT2D-26","SYNTH-144","HBA1C","HbA1c (%)","Week 16",16,7.3
"SYNTH-OBT2D-26","SYNTH-144","HBA1C","HbA1c (%)","Week 20",20,7.2
"SYNTH-OBT2D-26","SYNTH-144","HBA1C","HbA1c (%)","Week 26",26,7.1
"SYNTH-OBT2D-26","SYNTH-144","HEIGHT","Height (cm)","Baseline",0,171
"SYNTH-OBT2D-26","SYNTH-144","WEIGHT","Weight (kg)","Baseline",0,120.4
"SYNTH-OBT2D-26","SYNTH-144","WEIGHT","Weight (kg)","Week 4",4,115.1
"SYNTH-OBT2D-26","SYNTH-144","WEIGHT","Weight (kg)","Week 8",8,111
"SYNTH-OBT2D-26","SYNTH-144","WEIGHT","Weight (kg)","Week 12",12,108.4
"SYNTH-OBT2D-26","SYNTH-144","WEIGHT","Weight (kg)","Week 16",16,106.8
"SYNTH-OBT2D-26","SYNTH-144","WEIGHT","Weight (kg)","Week 20",20,104.6
"SYNTH-OBT2D-26","SYNTH-144","WEIGHT","Weight (kg)","Week 26",26,103.7
"SYNTH-OBT2D-26","SYNTH-145","HBA1C","HbA1c (%)","Baseline",0,8.2
"SYNTH-OBT2D-26","SYNTH-145","HBA1C","HbA1c (%)","Week 4",4,7.8
"SYNTH-OBT2D-26","SYNTH-145","HBA1C","HbA1c (%)","Week 8",8,7.9
"SYNTH-OBT2D-26","SYNTH-145","HBA1C","HbA1c (%)","Week 12",12,7.6
"SYNTH-OBT2D-26","SYNTH-145","HBA1C","HbA1c (%)","Week 16",16,7.5
"SYNTH-OBT2D-26","SYNTH-145","HBA1C","HbA1c (%)","Week 20",20,7.5
"SYNTH-OBT2D-26","SYNTH-145","HBA1C","HbA1c (%)","Week 26",26,7.4
"SYNTH-OBT2D-26","SYNTH-145","HEIGHT","Height (cm)","Baseline",0,171
"SYNTH-OBT2D-26","SYNTH-145","WEIGHT","Weight (kg)","Baseline",0,98.2
"SYNTH-OBT2D-26","SYNTH-145","WEIGHT","Weight (kg)","Week 4",4,95.7
"SYNTH-OBT2D-26","SYNTH-145","WEIGHT","Weight (kg)","Week 8",8,94.5
"SYNTH-OBT2D-26","SYNTH-145","WEIGHT","Weight (kg)","Week 12",12,93.4
"SYNTH-OBT2D-26","SYNTH-145","WEIGHT","Weight (kg)","Week 16",16,92.6
"SYNTH-OBT2D-26","SYNTH-145","WEIGHT","Weight (kg)","Week 20",20,92.1
"SYNTH-OBT2D-26","SYNTH-145","WEIGHT","Weight (kg)","Week 26",26,91.7
"SYNTH-OBT2D-26","SYNTH-146","HBA1C","HbA1c (%)","Baseline",0,8.2
"SYNTH-OBT2D-26","SYNTH-146","HBA1C","HbA1c (%)","Week 4",4,7.9
"SYNTH-OBT2D-26","SYNTH-146","HBA1C","HbA1c (%)","Week 8",8,7.8
"SYNTH-OBT2D-26","SYNTH-146","HBA1C","HbA1c (%)","Week 12",12,7.6
"SYNTH-OBT2D-26","SYNTH-146","HBA1C","HbA1c (%)","Week 16",16,7.6
"SYNTH-OBT2D-26","SYNTH-146","HBA1C","HbA1c (%)","Week 20",20,7.4
"SYNTH-OBT2D-26","SYNTH-146","HBA1C","HbA1c (%)","Week 26",26,7.4
"SYNTH-OBT2D-26","SYNTH-146","HEIGHT","Height (cm)","Baseline",0,173
"SYNTH-OBT2D-26","SYNTH-146","WEIGHT","Weight (kg)","Baseline",0,93.2
"SYNTH-OBT2D-26","SYNTH-146","WEIGHT","Weight (kg)","Week 4",4,90.9
"SYNTH-OBT2D-26","SYNTH-146","WEIGHT","Weight (kg)","Week 8",8,89.7
"SYNTH-OBT2D-26","SYNTH-146","WEIGHT","Weight (kg)","Week 12",12,89
"SYNTH-OBT2D-26","SYNTH-146","WEIGHT","Weight (kg)","Week 16",16,87.9
"SYNTH-OBT2D-26","SYNTH-146","WEIGHT","Weight (kg)","Week 20",20,87.9
"SYNTH-OBT2D-26","SYNTH-146","WEIGHT","Weight (kg)","Week 26",26,87.3
"SYNTH-OBT2D-26","SYNTH-147","HBA1C","HbA1c (%)","Baseline",0,7.7
"SYNTH-OBT2D-26","SYNTH-147","HBA1C","HbA1c (%)","Week 4",4,7.3
"SYNTH-OBT2D-26","SYNTH-147","HBA1C","HbA1c (%)","Week 8",8,7.1
"SYNTH-OBT2D-26","SYNTH-147","HBA1C","HbA1c (%)","Week 12",12,6.9
"SYNTH-OBT2D-26","SYNTH-147","HBA1C","HbA1c (%)","Week 16",16,6.7
"SYNTH-OBT2D-26","SYNTH-147","HBA1C","HbA1c (%)","Week 20",20,6.6
"SYNTH-OBT2D-26","SYNTH-147","HBA1C","HbA1c (%)","Week 26",26,6.5
"SYNTH-OBT2D-26","SYNTH-147","HEIGHT","Height (cm)","Baseline",0,178
"SYNTH-OBT2D-26","SYNTH-147","WEIGHT","Weight (kg)","Baseline",0,118.5
"SYNTH-OBT2D-26","SYNTH-147","WEIGHT","Weight (kg)","Week 4",4,114.2
"SYNTH-OBT2D-26","SYNTH-147","WEIGHT","Weight (kg)","Week 8",8,110.9
"SYNTH-OBT2D-26","SYNTH-147","WEIGHT","Weight (kg)","Week 12",12,108.8
"SYNTH-OBT2D-26","SYNTH-147","WEIGHT","Weight (kg)","Week 16",16,107.2
"SYNTH-OBT2D-26","SYNTH-147","WEIGHT","Weight (kg)","Week 20",20,106.1
"SYNTH-OBT2D-26","SYNTH-147","WEIGHT","Weight (kg)","Week 26",26,105
"SYNTH-OBT2D-26","SYNTH-148","HBA1C","HbA1c (%)","Baseline",0,7.8
"SYNTH-OBT2D-26","SYNTH-148","HBA1C","HbA1c (%)","Week 4",4,7.5
"SYNTH-OBT2D-26","SYNTH-148","HBA1C","HbA1c (%)","Week 8",8,7.5
"SYNTH-OBT2D-26","SYNTH-148","HBA1C","HbA1c (%)","Week 12",12,7.2
"SYNTH-OBT2D-26","SYNTH-148","HBA1C","HbA1c (%)","Week 16",16,7
"SYNTH-OBT2D-26","SYNTH-148","HBA1C","HbA1c (%)","Week 20",20,7.1
"SYNTH-OBT2D-26","SYNTH-148","HBA1C","HbA1c (%)","Week 26",26,7
"SYNTH-OBT2D-26","SYNTH-148","HEIGHT","Height (cm)","Baseline",0,176
"SYNTH-OBT2D-26","SYNTH-148","WEIGHT","Weight (kg)","Baseline",0,95.8
"SYNTH-OBT2D-26","SYNTH-148","WEIGHT","Weight (kg)","Week 4",4,93.7
"SYNTH-OBT2D-26","SYNTH-148","WEIGHT","Weight (kg)","Week 8",8,92.5
"SYNTH-OBT2D-26","SYNTH-148","WEIGHT","Weight (kg)","Week 12",12,91.3
"SYNTH-OBT2D-26","SYNTH-148","WEIGHT","Weight (kg)","Week 16",16,90.9
"SYNTH-OBT2D-26","SYNTH-148","WEIGHT","Weight (kg)","Week 20",20,90.6
"SYNTH-OBT2D-26","SYNTH-148","WEIGHT","Weight (kg)","Week 26",26,90.1
"SYNTH-OBT2D-26","SYNTH-149","HBA1C","HbA1c (%)","Baseline",0,8.1
"SYNTH-OBT2D-26","SYNTH-149","HBA1C","HbA1c (%)","Week 4",4,7.9
"SYNTH-OBT2D-26","SYNTH-149","HBA1C","HbA1c (%)","Week 8",8,7.5
"SYNTH-OBT2D-26","SYNTH-149","HBA1C","HbA1c (%)","Week 12",12,7.4
"SYNTH-OBT2D-26","SYNTH-149","HBA1C","HbA1c (%)","Week 16",16,7.4
"SYNTH-OBT2D-26","SYNTH-149","HBA1C","HbA1c (%)","Week 20",20,7.2
"SYNTH-OBT2D-26","SYNTH-149","HBA1C","HbA1c (%)","Week 26",26,7.1
"SYNTH-OBT2D-26","SYNTH-149","HEIGHT","Height (cm)","Baseline",0,160
"SYNTH-OBT2D-26","SYNTH-149","WEIGHT","Weight (kg)","Baseline",0,72.8
"SYNTH-OBT2D-26","SYNTH-149","WEIGHT","Weight (kg)","Week 4",4,70.5
"SYNTH-OBT2D-26","SYNTH-149","WEIGHT","Weight (kg)","Week 8",8,69
"SYNTH-OBT2D-26","SYNTH-149","WEIGHT","Weight (kg)","Week 12",12,68.1
"SYNTH-OBT2D-26","SYNTH-149","WEIGHT","Weight (kg)","Week 16",16,66.9
"SYNTH-OBT2D-26","SYNTH-149","WEIGHT","Weight (kg)","Week 20",20,66.3
"SYNTH-OBT2D-26","SYNTH-149","WEIGHT","Weight (kg)","Week 26",26,65.7
"SYNTH-OBT2D-26","SYNTH-150","HBA1C","HbA1c (%)","Baseline",0,8.4
"SYNTH-OBT2D-26","SYNTH-150","HBA1C","HbA1c (%)","Week 4",4,8.2
"SYNTH-OBT2D-26","SYNTH-150","HBA1C","HbA1c (%)","Week 8",8,8.1
"SYNTH-OBT2D-26","SYNTH-150","HBA1C","HbA1c (%)","Week 12",12,7.9
"SYNTH-OBT2D-26","SYNTH-150","HBA1C","HbA1c (%)","Week 16",16,8
"SYNTH-OBT2D-26","SYNTH-150","HBA1C","HbA1c (%)","Week 20",20,7.9
"SYNTH-OBT2D-26","SYNTH-150","HBA1C","HbA1c (%)","Week 26",26,7.9
"SYNTH-OBT2D-26","SYNTH-150","HEIGHT","Height (cm)","Baseline",0,176
"SYNTH-OBT2D-26","SYNTH-150","WEIGHT","Weight (kg)","Baseline",0,106.7
"SYNTH-OBT2D-26","SYNTH-150","WEIGHT","Weight (kg)","Week 4",4,104.6
"SYNTH-OBT2D-26","SYNTH-150","WEIGHT","Weight (kg)","Week 8",8,103.2
"SYNTH-OBT2D-26","SYNTH-150","WEIGHT","Weight (kg)","Week 12",12,101.9
"SYNTH-OBT2D-26","SYNTH-150","WEIGHT","Weight (kg)","Week 16",16,101.4
"SYNTH-OBT2D-26","SYNTH-150","WEIGHT","Weight (kg)","Week 20",20,100.5
"SYNTH-OBT2D-26","SYNTH-150","WEIGHT","Weight (kg)","Week 26",26,100.1
"SYNTH-OBT2D-26","SYNTH-151","HBA1C","HbA1c (%)","Baseline",0,9.2
"SYNTH-OBT2D-26","SYNTH-151","HBA1C","HbA1c (%)","Week 4",4,9.1
"SYNTH-OBT2D-26","SYNTH-151","HBA1C","HbA1c (%)","Week 8",8,8.8
"SYNTH-OBT2D-26","SYNTH-151","HBA1C","HbA1c (%)","Week 12",12,8.8
"SYNTH-OBT2D-26","SYNTH-151","HBA1C","HbA1c (%)","Week 16",16,8.6
"SYNTH-OBT2D-26","SYNTH-151","HBA1C","HbA1c (%)","Week 20",20,8.6
"SYNTH-OBT2D-26","SYNTH-151","HBA1C","HbA1c (%)","Week 26",26,8.5
"SYNTH-OBT2D-26","SYNTH-151","HEIGHT","Height (cm)","Baseline",0,179
"SYNTH-OBT2D-26","SYNTH-151","WEIGHT","Weight (kg)","Baseline",0,89.2
"SYNTH-OBT2D-26","SYNTH-151","WEIGHT","Weight (kg)","Week 4",4,87.4
"SYNTH-OBT2D-26","SYNTH-151","WEIGHT","Weight (kg)","Week 8",8,86.5
"SYNTH-OBT2D-26","SYNTH-151","WEIGHT","Weight (kg)","Week 12",12,85.2
"SYNTH-OBT2D-26","SYNTH-151","WEIGHT","Weight (kg)","Week 16",16,85.1
"SYNTH-OBT2D-26","SYNTH-151","WEIGHT","Weight (kg)","Week 20",20,84.6
"SYNTH-OBT2D-26","SYNTH-151","WEIGHT","Weight (kg)","Week 26",26,83.9
"SYNTH-OBT2D-26","SYNTH-152","HBA1C","HbA1c (%)","Baseline",0,8.3
"SYNTH-OBT2D-26","SYNTH-152","HBA1C","HbA1c (%)","Week 4",4,8.3
"SYNTH-OBT2D-26","SYNTH-152","HBA1C","HbA1c (%)","Week 8",8,8.3
"SYNTH-OBT2D-26","SYNTH-152","HBA1C","HbA1c (%)","Week 12",12,8.2
"SYNTH-OBT2D-26","SYNTH-152","HBA1C","HbA1c (%)","Week 16",16,8.1
"SYNTH-OBT2D-26","SYNTH-152","HBA1C","HbA1c (%)","Week 20",20,8.2
"SYNTH-OBT2D-26","SYNTH-152","HBA1C","HbA1c (%)","Week 26",26,8.2
"SYNTH-OBT2D-26","SYNTH-152","HEIGHT","Height (cm)","Baseline",0,172
"SYNTH-OBT2D-26","SYNTH-152","WEIGHT","Weight (kg)","Baseline",0,100.4
"SYNTH-OBT2D-26","SYNTH-152","WEIGHT","Weight (kg)","Week 4",4,99.9
"SYNTH-OBT2D-26","SYNTH-152","WEIGHT","Weight (kg)","Week 8",8,99.5
"SYNTH-OBT2D-26","SYNTH-152","WEIGHT","Weight (kg)","Week 12",12,99.5
"SYNTH-OBT2D-26","SYNTH-152","WEIGHT","Weight (kg)","Week 16",16,99.4
"SYNTH-OBT2D-26","SYNTH-152","WEIGHT","Weight (kg)","Week 20",20,99.7
"SYNTH-OBT2D-26","SYNTH-152","WEIGHT","Weight (kg)","Week 26",26,99.4
"SYNTH-OBT2D-26","SYNTH-153","HBA1C","HbA1c (%)","Baseline",0,8.6
"SYNTH-OBT2D-26","SYNTH-153","HBA1C","HbA1c (%)","Week 4",4,8.7
"SYNTH-OBT2D-26","SYNTH-153","HBA1C","HbA1c (%)","Week 8",8,8.6
"SYNTH-OBT2D-26","SYNTH-153","HBA1C","HbA1c (%)","Week 12",12,8.7
"SYNTH-OBT2D-26","SYNTH-153","HBA1C","HbA1c (%)","Week 16",16,8.9
"SYNTH-OBT2D-26","SYNTH-153","HBA1C","HbA1c (%)","Week 20",20,8.9
"SYNTH-OBT2D-26","SYNTH-153","HBA1C","HbA1c (%)","Week 26",26,8.8
"SYNTH-OBT2D-26","SYNTH-153","HEIGHT","Height (cm)","Baseline",0,170
"SYNTH-OBT2D-26","SYNTH-153","WEIGHT","Weight (kg)","Baseline",0,83.1
"SYNTH-OBT2D-26","SYNTH-153","WEIGHT","Weight (kg)","Week 4",4,83.9
"SYNTH-OBT2D-26","SYNTH-153","WEIGHT","Weight (kg)","Week 8",8,84.3
"SYNTH-OBT2D-26","SYNTH-153","WEIGHT","Weight (kg)","Week 12",12,84.3
"SYNTH-OBT2D-26","SYNTH-153","WEIGHT","Weight (kg)","Week 16",16,84.5
"SYNTH-OBT2D-26","SYNTH-153","WEIGHT","Weight (kg)","Week 20",20,85
"SYNTH-OBT2D-26","SYNTH-153","WEIGHT","Weight (kg)","Week 26",26,84.9
"SYNTH-OBT2D-26","SYNTH-154","HBA1C","HbA1c (%)","Baseline",0,7.5
"SYNTH-OBT2D-26","SYNTH-154","HBA1C","HbA1c (%)","Week 4",4,7
"SYNTH-OBT2D-26","SYNTH-154","HBA1C","HbA1c (%)","Week 8",8,6.9
"SYNTH-OBT2D-26","SYNTH-154","HBA1C","HbA1c (%)","Week 12",12,6.7
"SYNTH-OBT2D-26","SYNTH-154","HBA1C","HbA1c (%)","Week 16",16,6.6
"SYNTH-OBT2D-26","SYNTH-154","HBA1C","HbA1c (%)","Week 20",20,6.5
"SYNTH-OBT2D-26","SYNTH-154","HBA1C","HbA1c (%)","Week 26",26,6.4
"SYNTH-OBT2D-26","SYNTH-154","HEIGHT","Height (cm)","Baseline",0,170
"SYNTH-OBT2D-26","SYNTH-154","WEIGHT","Weight (kg)","Baseline",0,124.7
"SYNTH-OBT2D-26","SYNTH-154","WEIGHT","Weight (kg)","Week 4",4,119.6
"SYNTH-OBT2D-26","SYNTH-154","WEIGHT","Weight (kg)","Week 8",8,115.1
"SYNTH-OBT2D-26","SYNTH-154","WEIGHT","Weight (kg)","Week 12",12,113
"SYNTH-OBT2D-26","SYNTH-154","WEIGHT","Weight (kg)","Week 16",16,111.6
"SYNTH-OBT2D-26","SYNTH-154","WEIGHT","Weight (kg)","Week 20",20,110.2
"SYNTH-OBT2D-26","SYNTH-154","WEIGHT","Weight (kg)","Week 26",26,108.4
"SYNTH-OBT2D-26","SYNTH-155","HBA1C","HbA1c (%)","Baseline",0,8.7
"SYNTH-OBT2D-26","SYNTH-155","HBA1C","HbA1c (%)","Week 4",4,8.3
"SYNTH-OBT2D-26","SYNTH-155","HBA1C","HbA1c (%)","Week 8",8,7.8
"SYNTH-OBT2D-26","SYNTH-155","HBA1C","HbA1c (%)","Week 12",12,7.6
"SYNTH-OBT2D-26","SYNTH-155","HBA1C","HbA1c (%)","Week 16",16,7.2
"SYNTH-OBT2D-26","SYNTH-155","HBA1C","HbA1c (%)","Week 20",20,7.2
"SYNTH-OBT2D-26","SYNTH-155","HBA1C","HbA1c (%)","Week 26",26,7
"SYNTH-OBT2D-26","SYNTH-155","HEIGHT","Height (cm)","Baseline",0,165
"SYNTH-OBT2D-26","SYNTH-155","WEIGHT","Weight (kg)","Baseline",0,79.7
"SYNTH-OBT2D-26","SYNTH-155","WEIGHT","Weight (kg)","Week 4",4,75.9
"SYNTH-OBT2D-26","SYNTH-155","WEIGHT","Weight (kg)","Week 8",8,73.2
"SYNTH-OBT2D-26","SYNTH-155","WEIGHT","Weight (kg)","Week 12",12,71.1
"SYNTH-OBT2D-26","SYNTH-155","WEIGHT","Weight (kg)","Week 16",16,70
"SYNTH-OBT2D-26","SYNTH-155","WEIGHT","Weight (kg)","Week 20",20,68.9
"SYNTH-OBT2D-26","SYNTH-155","WEIGHT","Weight (kg)","Week 26",26,68.1
"SYNTH-OBT2D-26","SYNTH-156","HBA1C","HbA1c (%)","Baseline",0,7.6
"SYNTH-OBT2D-26","SYNTH-156","HBA1C","HbA1c (%)","Week 4",4,7.2
"SYNTH-OBT2D-26","SYNTH-156","HBA1C","HbA1c (%)","Week 8",8,7
"SYNTH-OBT2D-26","SYNTH-156","HBA1C","HbA1c (%)","Week 12",12,6.8
"SYNTH-OBT2D-26","SYNTH-156","HBA1C","HbA1c (%)","Week 16",16,6.7
"SYNTH-OBT2D-26","SYNTH-156","HBA1C","HbA1c (%)","Week 20",20,6.6
"SYNTH-OBT2D-26","SYNTH-156","HBA1C","HbA1c (%)","Week 26",26,6.5
"SYNTH-OBT2D-26","SYNTH-156","HEIGHT","Height (cm)","Baseline",0,164
"SYNTH-OBT2D-26","SYNTH-156","WEIGHT","Weight (kg)","Baseline",0,77.3
"SYNTH-OBT2D-26","SYNTH-156","WEIGHT","Weight (kg)","Week 4",4,74.3
"SYNTH-OBT2D-26","SYNTH-156","WEIGHT","Weight (kg)","Week 8",8,72
"SYNTH-OBT2D-26","SYNTH-156","WEIGHT","Weight (kg)","Week 12",12,70.2
"SYNTH-OBT2D-26","SYNTH-156","WEIGHT","Weight (kg)","Week 16",16,68.9
"SYNTH-OBT2D-26","SYNTH-156","WEIGHT","Weight (kg)","Week 20",20,68.3
"SYNTH-OBT2D-26","SYNTH-156","WEIGHT","Weight (kg)","Week 26",26,67.2
"SYNTH-OBT2D-26","SYNTH-157","HBA1C","HbA1c (%)","Baseline",0,7.8
"SYNTH-OBT2D-26","SYNTH-157","HBA1C","HbA1c (%)","Week 4",4,7.8
"SYNTH-OBT2D-26","SYNTH-157","HBA1C","HbA1c (%)","Week 8",8,8
"SYNTH-OBT2D-26","SYNTH-157","HBA1C","HbA1c (%)","Week 12",12,7.9
"SYNTH-OBT2D-26","SYNTH-157","HBA1C","HbA1c (%)","Week 16",16,8
"SYNTH-OBT2D-26","SYNTH-157","HBA1C","HbA1c (%)","Week 20",20,7.9
"SYNTH-OBT2D-26","SYNTH-157","HBA1C","HbA1c (%)","Week 26",26,7.9
"SYNTH-OBT2D-26","SYNTH-157","HEIGHT","Height (cm)","Baseline",0,155
"SYNTH-OBT2D-26","SYNTH-157","WEIGHT","Weight (kg)","Baseline",0,100.8
"SYNTH-OBT2D-26","SYNTH-157","WEIGHT","Weight (kg)","Week 4",4,100.8
"SYNTH-OBT2D-26","SYNTH-157","WEIGHT","Weight (kg)","Week 8",8,100.7
"SYNTH-OBT2D-26","SYNTH-157","WEIGHT","Weight (kg)","Week 12",12,101
"SYNTH-OBT2D-26","SYNTH-157","WEIGHT","Weight (kg)","Week 16",16,100.5
"SYNTH-OBT2D-26","SYNTH-157","WEIGHT","Weight (kg)","Week 20",20,100.6
"SYNTH-OBT2D-26","SYNTH-157","WEIGHT","Weight (kg)","Week 26",26,100.8
"SYNTH-OBT2D-26","SYNTH-158","HBA1C","HbA1c (%)","Baseline",0,10.1
"SYNTH-OBT2D-26","SYNTH-158","HBA1C","HbA1c (%)","Week 4",4,9.9
"SYNTH-OBT2D-26","SYNTH-158","HBA1C","HbA1c (%)","Week 8",8,9.9
"SYNTH-OBT2D-26","SYNTH-158","HBA1C","HbA1c (%)","Week 12",12,9.7
"SYNTH-OBT2D-26","SYNTH-158","HBA1C","HbA1c (%)","Week 16",16,9.7
"SYNTH-OBT2D-26","SYNTH-158","HBA1C","HbA1c (%)","Week 20",20,9.7
"SYNTH-OBT2D-26","SYNTH-158","HBA1C","HbA1c (%)","Week 26",26,9.6
"SYNTH-OBT2D-26","SYNTH-158","HEIGHT","Height (cm)","Baseline",0,169
"SYNTH-OBT2D-26","SYNTH-158","WEIGHT","Weight (kg)","Baseline",0,81.9
"SYNTH-OBT2D-26","SYNTH-158","WEIGHT","Weight (kg)","Week 4",4,80.1
"SYNTH-OBT2D-26","SYNTH-158","WEIGHT","Weight (kg)","Week 8",8,78.5
"SYNTH-OBT2D-26","SYNTH-158","WEIGHT","Weight (kg)","Week 12",12,77.9
"SYNTH-OBT2D-26","SYNTH-158","WEIGHT","Weight (kg)","Week 16",16,76.8
"SYNTH-OBT2D-26","SYNTH-158","WEIGHT","Weight (kg)","Week 20",20,76
"SYNTH-OBT2D-26","SYNTH-158","WEIGHT","Weight (kg)","Week 26",26,75.6
"SYNTH-OBT2D-26","SYNTH-159","HBA1C","HbA1c (%)","Baseline",0,8.7
"SYNTH-OBT2D-26","SYNTH-159","HBA1C","HbA1c (%)","Week 4",4,8.5
"SYNTH-OBT2D-26","SYNTH-159","HBA1C","HbA1c (%)","Week 8",8,8.1
"SYNTH-OBT2D-26","SYNTH-159","HBA1C","HbA1c (%)","Week 12",12,7.9
"SYNTH-OBT2D-26","SYNTH-159","HBA1C","HbA1c (%)","Week 16",16,8
"SYNTH-OBT2D-26","SYNTH-159","HBA1C","HbA1c (%)","Week 20",20,7.7
"SYNTH-OBT2D-26","SYNTH-159","HBA1C","HbA1c (%)","Week 26",26,7.7
"SYNTH-OBT2D-26","SYNTH-159","HEIGHT","Height (cm)","Baseline",0,171
"SYNTH-OBT2D-26","SYNTH-159","WEIGHT","Weight (kg)","Baseline",0,107
"SYNTH-OBT2D-26","SYNTH-159","WEIGHT","Weight (kg)","Week 4",4,103
"SYNTH-OBT2D-26","SYNTH-159","WEIGHT","Weight (kg)","Week 8",8,100.5
"SYNTH-OBT2D-26","SYNTH-159","WEIGHT","Weight (kg)","Week 12",12,98
"SYNTH-OBT2D-26","SYNTH-159","WEIGHT","Weight (kg)","Week 16",16,97.2
"SYNTH-OBT2D-26","SYNTH-159","WEIGHT","Weight (kg)","Week 20",20,96.7
"SYNTH-OBT2D-26","SYNTH-159","WEIGHT","Weight (kg)","Week 26",26,95.4
"SYNTH-OBT2D-26","SYNTH-160","HBA1C","HbA1c (%)","Baseline",0,8
"SYNTH-OBT2D-26","SYNTH-160","HBA1C","HbA1c (%)","Week 4",4,7.6
"SYNTH-OBT2D-26","SYNTH-160","HBA1C","HbA1c (%)","Week 8",8,7.6
"SYNTH-OBT2D-26","SYNTH-160","HBA1C","HbA1c (%)","Week 12",12,7.4
"SYNTH-OBT2D-26","SYNTH-160","HBA1C","HbA1c (%)","Week 16",16,7.1
"SYNTH-OBT2D-26","SYNTH-160","HBA1C","HbA1c (%)","Week 20",20,7.2
"SYNTH-OBT2D-26","SYNTH-160","HBA1C","HbA1c (%)","Week 26",26,7.1
"SYNTH-OBT2D-26","SYNTH-160","HEIGHT","Height (cm)","Baseline",0,166
"SYNTH-OBT2D-26","SYNTH-160","WEIGHT","Weight (kg)","Baseline",0,87.6
"SYNTH-OBT2D-26","SYNTH-160","WEIGHT","Weight (kg)","Week 4",4,85.3
"SYNTH-OBT2D-26","SYNTH-160","WEIGHT","Weight (kg)","Week 8",8,82.1
"SYNTH-OBT2D-26","SYNTH-160","WEIGHT","Weight (kg)","Week 12",12,81.4
"SYNTH-OBT2D-26","SYNTH-160","WEIGHT","Weight (kg)","Week 16",16,80
"SYNTH-OBT2D-26","SYNTH-160","WEIGHT","Weight (kg)","Week 20",20,79.3
"SYNTH-OBT2D-26","SYNTH-160","WEIGHT","Weight (kg)","Week 26",26,78.7
"SYNTH-OBT2D-26","SYNTH-161","HBA1C","HbA1c (%)","Baseline",0,7.8
"SYNTH-OBT2D-26","SYNTH-161","HBA1C","HbA1c (%)","Week 4",4,7.7
"SYNTH-OBT2D-26","SYNTH-161","HBA1C","HbA1c (%)","Week 8",8,7.6
"SYNTH-OBT2D-26","SYNTH-161","HBA1C","HbA1c (%)","Week 12",12,7.6
"SYNTH-OBT2D-26","SYNTH-161","HBA1C","HbA1c (%)","Week 16",16,7.5
"SYNTH-OBT2D-26","SYNTH-161","HBA1C","HbA1c (%)","Week 20",20,7.4
"SYNTH-OBT2D-26","SYNTH-161","HBA1C","HbA1c (%)","Week 26",26,7.4
"SYNTH-OBT2D-26","SYNTH-161","HEIGHT","Height (cm)","Baseline",0,178
"SYNTH-OBT2D-26","SYNTH-161","WEIGHT","Weight (kg)","Baseline",0,121.2
"SYNTH-OBT2D-26","SYNTH-161","WEIGHT","Weight (kg)","Week 4",4,118.7
"SYNTH-OBT2D-26","SYNTH-161","WEIGHT","Weight (kg)","Week 8",8,117.9
"SYNTH-OBT2D-26","SYNTH-161","WEIGHT","Weight (kg)","Week 12",12,117.1
"SYNTH-OBT2D-26","SYNTH-161","WEIGHT","Weight (kg)","Week 16",16,117.1
"SYNTH-OBT2D-26","SYNTH-161","WEIGHT","Weight (kg)","Week 20",20,116.2
"SYNTH-OBT2D-26","SYNTH-161","WEIGHT","Weight (kg)","Week 26",26,115.9
"SYNTH-OBT2D-26","SYNTH-162","HBA1C","HbA1c (%)","Baseline",0,10.1
"SYNTH-OBT2D-26","SYNTH-162","HBA1C","HbA1c (%)","Week 4",4,10.1
"SYNTH-OBT2D-26","SYNTH-162","HBA1C","HbA1c (%)","Week 8",8,10.1
"SYNTH-OBT2D-26","SYNTH-162","HBA1C","HbA1c (%)","Week 12",12,10.1
"SYNTH-OBT2D-26","SYNTH-162","HBA1C","HbA1c (%)","Week 16",16,10.1
"SYNTH-OBT2D-26","SYNTH-162","HBA1C","HbA1c (%)","Week 20",20,10.2
"SYNTH-OBT2D-26","SYNTH-162","HBA1C","HbA1c (%)","Week 26",26,10.1
"SYNTH-OBT2D-26","SYNTH-162","HEIGHT","Height (cm)","Baseline",0,176
"SYNTH-OBT2D-26","SYNTH-162","WEIGHT","Weight (kg)","Baseline",0,90.7
"SYNTH-OBT2D-26","SYNTH-162","WEIGHT","Weight (kg)","Week 4",4,90
"SYNTH-OBT2D-26","SYNTH-162","WEIGHT","Weight (kg)","Week 8",8,89.4
"SYNTH-OBT2D-26","SYNTH-162","WEIGHT","Weight (kg)","Week 12",12,88.9
"SYNTH-OBT2D-26","SYNTH-162","WEIGHT","Weight (kg)","Week 16",16,88.5
"SYNTH-OBT2D-26","SYNTH-162","WEIGHT","Weight (kg)","Week 20",20,88.3
"SYNTH-OBT2D-26","SYNTH-162","WEIGHT","Weight (kg)","Week 26",26,88.4
"SYNTH-OBT2D-26","SYNTH-163","HBA1C","HbA1c (%)","Baseline",0,7.3
"SYNTH-OBT2D-26","SYNTH-163","HBA1C","HbA1c (%)","Week 4",4,7.3
"SYNTH-OBT2D-26","SYNTH-163","HBA1C","HbA1c (%)","Week 8",8,7.4
"SYNTH-OBT2D-26","SYNTH-163","HBA1C","HbA1c (%)","Week 12",12,7.4
"SYNTH-OBT2D-26","SYNTH-163","HBA1C","HbA1c (%)","Week 16",16,7.3
"SYNTH-OBT2D-26","SYNTH-163","HBA1C","HbA1c (%)","Week 20",20,7.2
"SYNTH-OBT2D-26","SYNTH-163","HBA1C","HbA1c (%)","Week 26",26,7.3
"SYNTH-OBT2D-26","SYNTH-163","HEIGHT","Height (cm)","Baseline",0,172
"SYNTH-OBT2D-26","SYNTH-163","WEIGHT","Weight (kg)","Baseline",0,116.2
"SYNTH-OBT2D-26","SYNTH-163","WEIGHT","Weight (kg)","Week 4",4,116.9
"SYNTH-OBT2D-26","SYNTH-163","WEIGHT","Weight (kg)","Week 8",8,116.5
"SYNTH-OBT2D-26","SYNTH-163","WEIGHT","Weight (kg)","Week 12",12,116.4
"SYNTH-OBT2D-26","SYNTH-163","WEIGHT","Weight (kg)","Week 16",16,116.3
"SYNTH-OBT2D-26","SYNTH-163","WEIGHT","Weight (kg)","Week 20",20,116.3
"SYNTH-OBT2D-26","SYNTH-163","WEIGHT","Weight (kg)","Week 26",26,116.4
"SYNTH-OBT2D-26","SYNTH-164","HBA1C","HbA1c (%)","Baseline",0,7.7
"SYNTH-OBT2D-26","SYNTH-164","HBA1C","HbA1c (%)","Week 4",4,7.4
"SYNTH-OBT2D-26","SYNTH-164","HBA1C","HbA1c (%)","Week 8",8,7
"SYNTH-OBT2D-26","SYNTH-164","HBA1C","HbA1c (%)","Week 12",12,6.7
"SYNTH-OBT2D-26","SYNTH-164","HBA1C","HbA1c (%)","Week 16",16,6.6
"SYNTH-OBT2D-26","SYNTH-164","HBA1C","HbA1c (%)","Week 20",20,6.7
"SYNTH-OBT2D-26","SYNTH-164","HBA1C","HbA1c (%)","Week 26",26,6.5
"SYNTH-OBT2D-26","SYNTH-164","HEIGHT","Height (cm)","Baseline",0,158
"SYNTH-OBT2D-26","SYNTH-164","WEIGHT","Weight (kg)","Baseline",0,83.7
"SYNTH-OBT2D-26","SYNTH-164","WEIGHT","Weight (kg)","Week 4",4,80.5
"SYNTH-OBT2D-26","SYNTH-164","WEIGHT","Weight (kg)","Week 8",8,78.3
"SYNTH-OBT2D-26","SYNTH-164","WEIGHT","Weight (kg)","Week 12",12,76.6
"SYNTH-OBT2D-26","SYNTH-164","WEIGHT","Weight (kg)","Week 16",16,75.6
"SYNTH-OBT2D-26","SYNTH-164","WEIGHT","Weight (kg)","Week 20",20,75.2
"SYNTH-OBT2D-26","SYNTH-164","WEIGHT","Weight (kg)","Week 26",26,73.9
"SYNTH-OBT2D-26","SYNTH-165","HBA1C","HbA1c (%)","Baseline",0,9.1
"SYNTH-OBT2D-26","SYNTH-165","HBA1C","HbA1c (%)","Week 4",4,9
"SYNTH-OBT2D-26","SYNTH-165","HBA1C","HbA1c (%)","Week 8",8,8.9
"SYNTH-OBT2D-26","SYNTH-165","HBA1C","HbA1c (%)","Week 12",12,8.9
"SYNTH-OBT2D-26","SYNTH-165","HBA1C","HbA1c (%)","Week 16",16,8.8
"SYNTH-OBT2D-26","SYNTH-165","HBA1C","HbA1c (%)","Week 20",20,8.8
"SYNTH-OBT2D-26","SYNTH-165","HBA1C","HbA1c (%)","Week 26",26,8.8
"SYNTH-OBT2D-26","SYNTH-165","HEIGHT","Height (cm)","Baseline",0,174
"SYNTH-OBT2D-26","SYNTH-165","WEIGHT","Weight (kg)","Baseline",0,110.7
"SYNTH-OBT2D-26","SYNTH-165","WEIGHT","Weight (kg)","Week 4",4,109.4
"SYNTH-OBT2D-26","SYNTH-165","WEIGHT","Weight (kg)","Week 8",8,108.4
"SYNTH-OBT2D-26","SYNTH-165","WEIGHT","Weight (kg)","Week 12",12,107.7
"SYNTH-OBT2D-26","SYNTH-165","WEIGHT","Weight (kg)","Week 16",16,106.8
"SYNTH-OBT2D-26","SYNTH-165","WEIGHT","Weight (kg)","Week 20",20,106.8
"SYNTH-OBT2D-26","SYNTH-165","WEIGHT","Weight (kg)","Week 26",26,106.4
"SYNTH-OBT2D-26","SYNTH-166","HBA1C","HbA1c (%)","Baseline",0,7
"SYNTH-OBT2D-26","SYNTH-166","HBA1C","HbA1c (%)","Week 4",4,6.9
"SYNTH-OBT2D-26","SYNTH-166","HBA1C","HbA1c (%)","Week 8",8,6.8
"SYNTH-OBT2D-26","SYNTH-166","HBA1C","HbA1c (%)","Week 12",12,6.8
"SYNTH-OBT2D-26","SYNTH-166","HBA1C","HbA1c (%)","Week 16",16,6.7
"SYNTH-OBT2D-26","SYNTH-166","HBA1C","HbA1c (%)","Week 20",20,6.7
"SYNTH-OBT2D-26","SYNTH-166","HBA1C","HbA1c (%)","Week 26",26,6.6
"SYNTH-OBT2D-26","SYNTH-166","HEIGHT","Height (cm)","Baseline",0,177
"SYNTH-OBT2D-26","SYNTH-166","WEIGHT","Weight (kg)","Baseline",0,102.1
"SYNTH-OBT2D-26","SYNTH-166","WEIGHT","Weight (kg)","Week 4",4,100.8
"SYNTH-OBT2D-26","SYNTH-166","WEIGHT","Weight (kg)","Week 8",8,98.9
"SYNTH-OBT2D-26","SYNTH-166","WEIGHT","Weight (kg)","Week 12",12,97.7
"SYNTH-OBT2D-26","SYNTH-166","WEIGHT","Weight (kg)","Week 16",16,97.6
"SYNTH-OBT2D-26","SYNTH-166","WEIGHT","Weight (kg)","Week 20",20,96.9
"SYNTH-OBT2D-26","SYNTH-166","WEIGHT","Weight (kg)","Week 26",26,96.3
"SYNTH-OBT2D-26","SYNTH-167","HBA1C","HbA1c (%)","Baseline",0,7.2
"SYNTH-OBT2D-26","SYNTH-167","HBA1C","HbA1c (%)","Week 4",4,7.2
"SYNTH-OBT2D-26","SYNTH-167","HBA1C","HbA1c (%)","Week 8",8,7
"SYNTH-OBT2D-26","SYNTH-167","HBA1C","HbA1c (%)","Week 12",12,6.9
"SYNTH-OBT2D-26","SYNTH-167","HBA1C","HbA1c (%)","Week 16",16,6.9
"SYNTH-OBT2D-26","SYNTH-167","HBA1C","HbA1c (%)","Week 20",20,6.8
"SYNTH-OBT2D-26","SYNTH-167","HBA1C","HbA1c (%)","Week 26",26,6.8
"SYNTH-OBT2D-26","SYNTH-167","HEIGHT","Height (cm)","Baseline",0,187
"SYNTH-OBT2D-26","SYNTH-167","WEIGHT","Weight (kg)","Baseline",0,157.7
"SYNTH-OBT2D-26","SYNTH-167","WEIGHT","Weight (kg)","Week 4",4,157.2
"SYNTH-OBT2D-26","SYNTH-167","WEIGHT","Weight (kg)","Week 8",8,155.3
"SYNTH-OBT2D-26","SYNTH-167","WEIGHT","Weight (kg)","Week 12",12,156.3
"SYNTH-OBT2D-26","SYNTH-167","WEIGHT","Weight (kg)","Week 16",16,155.2
"SYNTH-OBT2D-26","SYNTH-167","WEIGHT","Weight (kg)","Week 20",20,154.5
"SYNTH-OBT2D-26","SYNTH-167","WEIGHT","Weight (kg)","Week 26",26,154.5
"SYNTH-OBT2D-26","SYNTH-168","HBA1C","HbA1c (%)","Baseline",0,9.1
"SYNTH-OBT2D-26","SYNTH-168","HBA1C","HbA1c (%)","Week 4",4,8.6
"SYNTH-OBT2D-26","SYNTH-168","HBA1C","HbA1c (%)","Week 8",8,8.3
"SYNTH-OBT2D-26","SYNTH-168","HBA1C","HbA1c (%)","Week 12",12,8
"SYNTH-OBT2D-26","SYNTH-168","HBA1C","HbA1c (%)","Week 16",16,7.9
"SYNTH-OBT2D-26","SYNTH-168","HBA1C","HbA1c (%)","Week 20",20,7.7
"SYNTH-OBT2D-26","SYNTH-168","HBA1C","HbA1c (%)","Week 26",26,7.6
"SYNTH-OBT2D-26","SYNTH-168","HEIGHT","Height (cm)","Baseline",0,162
"SYNTH-OBT2D-26","SYNTH-168","WEIGHT","Weight (kg)","Baseline",0,79.6
"SYNTH-OBT2D-26","SYNTH-168","WEIGHT","Weight (kg)","Week 4",4,76.2
"SYNTH-OBT2D-26","SYNTH-168","WEIGHT","Weight (kg)","Week 8",8,74
"SYNTH-OBT2D-26","SYNTH-168","WEIGHT","Weight (kg)","Week 12",12,72.3
"SYNTH-OBT2D-26","SYNTH-168","WEIGHT","Weight (kg)","Week 16",16,71.1
"SYNTH-OBT2D-26","SYNTH-168","WEIGHT","Weight (kg)","Week 20",20,70.3
"SYNTH-OBT2D-26","SYNTH-168","WEIGHT","Weight (kg)","Week 26",26,69.4
"SYNTH-OBT2D-26","SYNTH-169","HBA1C","HbA1c (%)","Baseline",0,8.8
"SYNTH-OBT2D-26","SYNTH-169","HBA1C","HbA1c (%)","Week 4",4,8.3
"SYNTH-OBT2D-26","SYNTH-169","HBA1C","HbA1c (%)","Week 8",8,7.7
"SYNTH-OBT2D-26","SYNTH-169","HBA1C","HbA1c (%)","Week 12",12,7.4
"SYNTH-OBT2D-26","SYNTH-169","HBA1C","HbA1c (%)","Week 16",16,7.2
"SYNTH-OBT2D-26","SYNTH-169","HBA1C","HbA1c (%)","Week 20",20,7.1
"SYNTH-OBT2D-26","SYNTH-169","HBA1C","HbA1c (%)","Week 26",26,6.9
"SYNTH-OBT2D-26","SYNTH-169","HEIGHT","Height (cm)","Baseline",0,171
"SYNTH-OBT2D-26","SYNTH-169","WEIGHT","Weight (kg)","Baseline",0,93.2
"SYNTH-OBT2D-26","SYNTH-169","WEIGHT","Weight (kg)","Week 4",4,87.5
"SYNTH-OBT2D-26","SYNTH-169","WEIGHT","Weight (kg)","Week 8",8,83
"SYNTH-OBT2D-26","SYNTH-169","WEIGHT","Weight (kg)","Week 12",12,79.7
"SYNTH-OBT2D-26","SYNTH-169","WEIGHT","Weight (kg)","Week 16",16,77.8
"SYNTH-OBT2D-26","SYNTH-169","WEIGHT","Weight (kg)","Week 20",20,76.4
"SYNTH-OBT2D-26","SYNTH-169","WEIGHT","Weight (kg)","Week 26",26,74.7
"SYNTH-OBT2D-26","SYNTH-170","HBA1C","HbA1c (%)","Baseline",0,9.8
"SYNTH-OBT2D-26","SYNTH-170","HBA1C","HbA1c (%)","Week 4",4,9.7
"SYNTH-OBT2D-26","SYNTH-170","HBA1C","HbA1c (%)","Week 8",8,9.8
"SYNTH-OBT2D-26","SYNTH-170","HBA1C","HbA1c (%)","Week 12",12,9.7
"SYNTH-OBT2D-26","SYNTH-170","HBA1C","HbA1c (%)","Week 16",16,9.6
"SYNTH-OBT2D-26","SYNTH-170","HBA1C","HbA1c (%)","Week 20",20,9.7
"SYNTH-OBT2D-26","SYNTH-170","HBA1C","HbA1c (%)","Week 26",26,9.6
"SYNTH-OBT2D-26","SYNTH-170","HEIGHT","Height (cm)","Baseline",0,166
"SYNTH-OBT2D-26","SYNTH-170","WEIGHT","Weight (kg)","Baseline",0,88.4
"SYNTH-OBT2D-26","SYNTH-170","WEIGHT","Weight (kg)","Week 4",4,87.9
"SYNTH-OBT2D-26","SYNTH-170","WEIGHT","Weight (kg)","Week 8",8,87.6
"SYNTH-OBT2D-26","SYNTH-170","WEIGHT","Weight (kg)","Week 12",12,87.5
"SYNTH-OBT2D-26","SYNTH-170","WEIGHT","Weight (kg)","Week 16",16,87.2
"SYNTH-OBT2D-26","SYNTH-170","WEIGHT","Weight (kg)","Week 20",20,86.7
"SYNTH-OBT2D-26","SYNTH-170","WEIGHT","Weight (kg)","Week 26",26,86.9
"SYNTH-OBT2D-26","SYNTH-171","HBA1C","HbA1c (%)","Baseline",0,8.3
"SYNTH-OBT2D-26","SYNTH-171","HBA1C","HbA1c (%)","Week 4",4,8.2
"SYNTH-OBT2D-26","SYNTH-171","HBA1C","HbA1c (%)","Week 8",8,8.1
"SYNTH-OBT2D-26","SYNTH-171","HBA1C","HbA1c (%)","Week 12",12,8.1
"SYNTH-OBT2D-26","SYNTH-171","HBA1C","HbA1c (%)","Week 16",16,8
"SYNTH-OBT2D-26","SYNTH-171","HBA1C","HbA1c (%)","Week 20",20,8.1
"SYNTH-OBT2D-26","SYNTH-171","HBA1C","HbA1c (%)","Week 26",26,8
"SYNTH-OBT2D-26","SYNTH-171","HEIGHT","Height (cm)","Baseline",0,161
"SYNTH-OBT2D-26","SYNTH-171","WEIGHT","Weight (kg)","Baseline",0,71.1
"SYNTH-OBT2D-26","SYNTH-171","WEIGHT","Weight (kg)","Week 4",4,70.6
"SYNTH-OBT2D-26","SYNTH-171","WEIGHT","Weight (kg)","Week 8",8,70.3
"SYNTH-OBT2D-26","SYNTH-171","WEIGHT","Weight (kg)","Week 12",12,69.9
"SYNTH-OBT2D-26","SYNTH-171","WEIGHT","Weight (kg)","Week 16",16,69.7
"SYNTH-OBT2D-26","SYNTH-171","WEIGHT","Weight (kg)","Week 20",20,69.5
"SYNTH-OBT2D-26","SYNTH-171","WEIGHT","Weight (kg)","Week 26",26,69.5
"SYNTH-OBT2D-26","SYNTH-172","HBA1C","HbA1c (%)","Baseline",0,7.6
"SYNTH-OBT2D-26","SYNTH-172","HBA1C","HbA1c (%)","Week 4",4,7.2
"SYNTH-OBT2D-26","SYNTH-172","HBA1C","HbA1c (%)","Week 8",8,6.9
"SYNTH-OBT2D-26","SYNTH-172","HBA1C","HbA1c (%)","Week 12",12,6.8
"SYNTH-OBT2D-26","SYNTH-172","HBA1C","HbA1c (%)","Week 16",16,6.5
"SYNTH-OBT2D-26","SYNTH-172","HBA1C","HbA1c (%)","Week 20",20,6.4
"SYNTH-OBT2D-26","SYNTH-172","HBA1C","HbA1c (%)","Week 26",26,6.3
"SYNTH-OBT2D-26","SYNTH-172","HEIGHT","Height (cm)","Baseline",0,162
"SYNTH-OBT2D-26","SYNTH-172","WEIGHT","Weight (kg)","Baseline",0,98.4
"SYNTH-OBT2D-26","SYNTH-172","WEIGHT","Weight (kg)","Week 4",4,95
"SYNTH-OBT2D-26","SYNTH-172","WEIGHT","Weight (kg)","Week 8",8,92.1
"SYNTH-OBT2D-26","SYNTH-172","WEIGHT","Weight (kg)","Week 12",12,90.4
"SYNTH-OBT2D-26","SYNTH-172","WEIGHT","Weight (kg)","Week 16",16,89.3
"SYNTH-OBT2D-26","SYNTH-172","WEIGHT","Weight (kg)","Week 20",20,87.9
"SYNTH-OBT2D-26","SYNTH-172","WEIGHT","Weight (kg)","Week 26",26,87.4
"SYNTH-OBT2D-26","SYNTH-173","HBA1C","HbA1c (%)","Baseline",0,7.9
"SYNTH-OBT2D-26","SYNTH-173","HBA1C","HbA1c (%)","Week 4",4,7.4
"SYNTH-OBT2D-26","SYNTH-173","HBA1C","HbA1c (%)","Week 8",8,7.1
"SYNTH-OBT2D-26","SYNTH-173","HBA1C","HbA1c (%)","Week 12",12,6.9
"SYNTH-OBT2D-26","SYNTH-173","HBA1C","HbA1c (%)","Week 16",16,6.6
"SYNTH-OBT2D-26","SYNTH-173","HBA1C","HbA1c (%)","Week 20",20,6.5
"SYNTH-OBT2D-26","SYNTH-173","HBA1C","HbA1c (%)","Week 26",26,6.5
"SYNTH-OBT2D-26","SYNTH-173","HEIGHT","Height (cm)","Baseline",0,164
"SYNTH-OBT2D-26","SYNTH-173","WEIGHT","Weight (kg)","Baseline",0,116.6
"SYNTH-OBT2D-26","SYNTH-173","WEIGHT","Weight (kg)","Week 4",4,112.2
"SYNTH-OBT2D-26","SYNTH-173","WEIGHT","Weight (kg)","Week 8",8,109.4
"SYNTH-OBT2D-26","SYNTH-173","WEIGHT","Weight (kg)","Week 12",12,107.6
"SYNTH-OBT2D-26","SYNTH-173","WEIGHT","Weight (kg)","Week 16",16,105.4
"SYNTH-OBT2D-26","SYNTH-173","WEIGHT","Weight (kg)","Week 20",20,104.6
"SYNTH-OBT2D-26","SYNTH-173","WEIGHT","Weight (kg)","Week 26",26,103.5
"SYNTH-OBT2D-26","SYNTH-174","HBA1C","HbA1c (%)","Baseline",0,8.4
"SYNTH-OBT2D-26","SYNTH-174","HBA1C","HbA1c (%)","Week 4",4,8.1
"SYNTH-OBT2D-26","SYNTH-174","HBA1C","HbA1c (%)","Week 8",8,7.8
"SYNTH-OBT2D-26","SYNTH-174","HBA1C","HbA1c (%)","Week 12",12,7.6
"SYNTH-OBT2D-26","SYNTH-174","HBA1C","HbA1c (%)","Week 16",16,7.6
"SYNTH-OBT2D-26","SYNTH-174","HBA1C","HbA1c (%)","Week 20",20,7.5
"SYNTH-OBT2D-26","SYNTH-174","HBA1C","HbA1c (%)","Week 26",26,7.4
"SYNTH-OBT2D-26","SYNTH-174","HEIGHT","Height (cm)","Baseline",0,157
"SYNTH-OBT2D-26","SYNTH-174","WEIGHT","Weight (kg)","Baseline",0,84.6
"SYNTH-OBT2D-26","SYNTH-174","WEIGHT","Weight (kg)","Week 4",4,81.8
"SYNTH-OBT2D-26","SYNTH-174","WEIGHT","Weight (kg)","Week 8",8,79.7
"SYNTH-OBT2D-26","SYNTH-174","WEIGHT","Weight (kg)","Week 12",12,78.6
"SYNTH-OBT2D-26","SYNTH-174","WEIGHT","Weight (kg)","Week 16",16,77.3
"SYNTH-OBT2D-26","SYNTH-174","WEIGHT","Weight (kg)","Week 20",20,76.6
"SYNTH-OBT2D-26","SYNTH-174","WEIGHT","Weight (kg)","Week 26",26,75.8
"SYNTH-OBT2D-26","SYNTH-175","HBA1C","HbA1c (%)","Baseline",0,8.8
"SYNTH-OBT2D-26","SYNTH-175","HBA1C","HbA1c (%)","Week 4",4,8.5
"SYNTH-OBT2D-26","SYNTH-175","HBA1C","HbA1c (%)","Week 8",8,8.4
"SYNTH-OBT2D-26","SYNTH-175","HBA1C","HbA1c (%)","Week 12",12,8.2
"SYNTH-OBT2D-26","SYNTH-175","HBA1C","HbA1c (%)","Week 16",16,8
"SYNTH-OBT2D-26","SYNTH-175","HBA1C","HbA1c (%)","Week 20",20,8
"SYNTH-OBT2D-26","SYNTH-175","HBA1C","HbA1c (%)","Week 26",26,8
"SYNTH-OBT2D-26","SYNTH-175","HEIGHT","Height (cm)","Baseline",0,171
"SYNTH-OBT2D-26","SYNTH-175","WEIGHT","Weight (kg)","Baseline",0,97.7
"SYNTH-OBT2D-26","SYNTH-175","WEIGHT","Weight (kg)","Week 4",4,94.6
"SYNTH-OBT2D-26","SYNTH-175","WEIGHT","Weight (kg)","Week 8",8,91.8
"SYNTH-OBT2D-26","SYNTH-175","WEIGHT","Weight (kg)","Week 12",12,90.8
"SYNTH-OBT2D-26","SYNTH-175","WEIGHT","Weight (kg)","Week 16",16,89.1
"SYNTH-OBT2D-26","SYNTH-175","WEIGHT","Weight (kg)","Week 20",20,88.5
"SYNTH-OBT2D-26","SYNTH-175","WEIGHT","Weight (kg)","Week 26",26,87.7
"SYNTH-OBT2D-26","SYNTH-176","HBA1C","HbA1c (%)","Baseline",0,7.7
"SYNTH-OBT2D-26","SYNTH-176","HBA1C","HbA1c (%)","Week 4",4,7.6
"SYNTH-OBT2D-26","SYNTH-176","HBA1C","HbA1c (%)","Week 8",8,7.5
"SYNTH-OBT2D-26","SYNTH-176","HBA1C","HbA1c (%)","Week 12",12,7.6
"SYNTH-OBT2D-26","SYNTH-176","HBA1C","HbA1c (%)","Week 16",16,7.4
"SYNTH-OBT2D-26","SYNTH-176","HBA1C","HbA1c (%)","Week 20",20,7.5
"SYNTH-OBT2D-26","SYNTH-176","HBA1C","HbA1c (%)","Week 26",26,7.4
"SYNTH-OBT2D-26","SYNTH-176","HEIGHT","Height (cm)","Baseline",0,168
"SYNTH-OBT2D-26","SYNTH-176","WEIGHT","Weight (kg)","Baseline",0,83.2
"SYNTH-OBT2D-26","SYNTH-176","WEIGHT","Weight (kg)","Week 4",4,81.8
"SYNTH-OBT2D-26","SYNTH-176","WEIGHT","Weight (kg)","Week 8",8,81.6
"SYNTH-OBT2D-26","SYNTH-176","WEIGHT","Weight (kg)","Week 12",12,80.7
"SYNTH-OBT2D-26","SYNTH-176","WEIGHT","Weight (kg)","Week 16",16,80.3
"SYNTH-OBT2D-26","SYNTH-176","WEIGHT","Weight (kg)","Week 20",20,80.1
"SYNTH-OBT2D-26","SYNTH-176","WEIGHT","Weight (kg)","Week 26",26,79.7
"SYNTH-OBT2D-26","SYNTH-177","HBA1C","HbA1c (%)","Baseline",0,9.2
"SYNTH-OBT2D-26","SYNTH-177","HBA1C","HbA1c (%)","Week 4",4,8.9
"SYNTH-OBT2D-26","SYNTH-177","HBA1C","HbA1c (%)","Week 8",8,8.7
"SYNTH-OBT2D-26","SYNTH-177","HBA1C","HbA1c (%)","Week 12",12,8.5
"SYNTH-OBT2D-26","SYNTH-177","HBA1C","HbA1c (%)","Week 16",16,8.4
"SYNTH-OBT2D-26","SYNTH-177","HBA1C","HbA1c (%)","Week 20",20,8.5
"SYNTH-OBT2D-26","SYNTH-177","HBA1C","HbA1c (%)","Week 26",26,8.3
"SYNTH-OBT2D-26","SYNTH-177","HEIGHT","Height (cm)","Baseline",0,176
"SYNTH-OBT2D-26","SYNTH-177","WEIGHT","Weight (kg)","Baseline",0,131
"SYNTH-OBT2D-26","SYNTH-177","WEIGHT","Weight (kg)","Week 4",4,128
"SYNTH-OBT2D-26","SYNTH-177","WEIGHT","Weight (kg)","Week 8",8,125.5
"SYNTH-OBT2D-26","SYNTH-177","WEIGHT","Weight (kg)","Week 12",12,123.8
"SYNTH-OBT2D-26","SYNTH-177","WEIGHT","Weight (kg)","Week 16",16,122.1
"SYNTH-OBT2D-26","SYNTH-177","WEIGHT","Weight (kg)","Week 20",20,121.6
"SYNTH-OBT2D-26","SYNTH-177","WEIGHT","Weight (kg)","Week 26",26,120.9
"SYNTH-OBT2D-26","SYNTH-178","HBA1C","HbA1c (%)","Baseline",0,8.1
"SYNTH-OBT2D-26","SYNTH-178","HBA1C","HbA1c (%)","Week 4",4,7.8
"SYNTH-OBT2D-26","SYNTH-178","HBA1C","HbA1c (%)","Week 8",8,7.7
"SYNTH-OBT2D-26","SYNTH-178","HBA1C","HbA1c (%)","Week 12",12,7.5
"SYNTH-OBT2D-26","SYNTH-178","HBA1C","HbA1c (%)","Week 16",16,7.4
"SYNTH-OBT2D-26","SYNTH-178","HBA1C","HbA1c (%)","Week 20",20,7.4
"SYNTH-OBT2D-26","SYNTH-178","HBA1C","HbA1c (%)","Week 26",26,7.3
"SYNTH-OBT2D-26","SYNTH-178","HEIGHT","Height (cm)","Baseline",0,191
"SYNTH-OBT2D-26","SYNTH-178","WEIGHT","Weight (kg)","Baseline",0,120.8
"SYNTH-OBT2D-26","SYNTH-178","WEIGHT","Weight (kg)","Week 4",4,117.8
"SYNTH-OBT2D-26","SYNTH-178","WEIGHT","Weight (kg)","Week 8",8,115.5
"SYNTH-OBT2D-26","SYNTH-178","WEIGHT","Weight (kg)","Week 12",12,114
"SYNTH-OBT2D-26","SYNTH-178","WEIGHT","Weight (kg)","Week 16",16,113.3
"SYNTH-OBT2D-26","SYNTH-178","WEIGHT","Weight (kg)","Week 20",20,112.2
"SYNTH-OBT2D-26","SYNTH-178","WEIGHT","Weight (kg)","Week 26",26,111.6
"SYNTH-OBT2D-26","SYNTH-179","HBA1C","HbA1c (%)","Baseline",0,7.4
"SYNTH-OBT2D-26","SYNTH-179","HBA1C","HbA1c (%)","Week 4",4,7.1
"SYNTH-OBT2D-26","SYNTH-179","HBA1C","HbA1c (%)","Week 8",8,7.1
"SYNTH-OBT2D-26","SYNTH-179","HBA1C","HbA1c (%)","Week 12",12,6.9
"SYNTH-OBT2D-26","SYNTH-179","HBA1C","HbA1c (%)","Week 16",16,6.9
"SYNTH-OBT2D-26","SYNTH-179","HBA1C","HbA1c (%)","Week 20",20,6.8
"SYNTH-OBT2D-26","SYNTH-179","HBA1C","HbA1c (%)","Week 26",26,6.8
"SYNTH-OBT2D-26","SYNTH-179","HEIGHT","Height (cm)","Baseline",0,181
"SYNTH-OBT2D-26","SYNTH-179","WEIGHT","Weight (kg)","Baseline",0,105.2
"SYNTH-OBT2D-26","SYNTH-179","WEIGHT","Weight (kg)","Week 4",4,103
"SYNTH-OBT2D-26","SYNTH-179","WEIGHT","Weight (kg)","Week 8",8,101
"SYNTH-OBT2D-26","SYNTH-179","WEIGHT","Weight (kg)","Week 12",12,100.2
"SYNTH-OBT2D-26","SYNTH-179","WEIGHT","Weight (kg)","Week 16",16,99.9
"SYNTH-OBT2D-26","SYNTH-179","WEIGHT","Weight (kg)","Week 20",20,98.8
"SYNTH-OBT2D-26","SYNTH-179","WEIGHT","Weight (kg)","Week 26",26,98.4
"SYNTH-OBT2D-26","SYNTH-180","HBA1C","HbA1c (%)","Baseline",0,7.8
"SYNTH-OBT2D-26","SYNTH-180","HBA1C","HbA1c (%)","Week 4",4,7.3
"SYNTH-OBT2D-26","SYNTH-180","HBA1C","HbA1c (%)","Week 8",8,6.9
"SYNTH-OBT2D-26","SYNTH-180","HBA1C","HbA1c (%)","Week 12",12,6.7
"SYNTH-OBT2D-26","SYNTH-180","HBA1C","HbA1c (%)","Week 16",16,6.5
"SYNTH-OBT2D-26","SYNTH-180","HBA1C","HbA1c (%)","Week 20",20,6.3
"SYNTH-OBT2D-26","SYNTH-180","HBA1C","HbA1c (%)","Week 26",26,6.2
"SYNTH-OBT2D-26","SYNTH-180","HEIGHT","Height (cm)","Baseline",0,159
"SYNTH-OBT2D-26","SYNTH-180","WEIGHT","Weight (kg)","Baseline",0,86.8
"SYNTH-OBT2D-26","SYNTH-180","WEIGHT","Weight (kg)","Week 4",4,82.6
"SYNTH-OBT2D-26","SYNTH-180","WEIGHT","Weight (kg)","Week 8",8,79.5
"SYNTH-OBT2D-26","SYNTH-180","WEIGHT","Weight (kg)","Week 12",12,76.7
"SYNTH-OBT2D-26","SYNTH-180","WEIGHT","Weight (kg)","Week 16",16,75.5
"SYNTH-OBT2D-26","SYNTH-180","WEIGHT","Weight (kg)","Week 20",20,74.3
"SYNTH-OBT2D-26","SYNTH-180","WEIGHT","Weight (kg)","Week 26",26,73.3
"SYNTH-OBT2D-26","SYNTH-181","HBA1C","HbA1c (%)","Baseline",0,7.6
"SYNTH-OBT2D-26","SYNTH-181","HBA1C","HbA1c (%)","Week 4",4,7.1
"SYNTH-OBT2D-26","SYNTH-181","HBA1C","HbA1c (%)","Week 8",8,6.7
"SYNTH-OBT2D-26","SYNTH-181","HBA1C","HbA1c (%)","Week 12",12,6.5
"SYNTH-OBT2D-26","SYNTH-181","HBA1C","HbA1c (%)","Week 16",16,6.3
"SYNTH-OBT2D-26","SYNTH-181","HBA1C","HbA1c (%)","Week 20",20,6.2
"SYNTH-OBT2D-26","SYNTH-181","HBA1C","HbA1c (%)","Week 26",26,6.1
"SYNTH-OBT2D-26","SYNTH-181","HEIGHT","Height (cm)","Baseline",0,176
"SYNTH-OBT2D-26","SYNTH-181","WEIGHT","Weight (kg)","Baseline",0,100
"SYNTH-OBT2D-26","SYNTH-181","WEIGHT","Weight (kg)","Week 4",4,95.2
"SYNTH-OBT2D-26","SYNTH-181","WEIGHT","Weight (kg)","Week 8",8,90.9
"SYNTH-OBT2D-26","SYNTH-181","WEIGHT","Weight (kg)","Week 12",12,88.5
"SYNTH-OBT2D-26","SYNTH-181","WEIGHT","Weight (kg)","Week 16",16,86.6
"SYNTH-OBT2D-26","SYNTH-181","WEIGHT","Weight (kg)","Week 20",20,85
"SYNTH-OBT2D-26","SYNTH-181","WEIGHT","Weight (kg)","Week 26",26,83.8
"SYNTH-OBT2D-26","SYNTH-182","HBA1C","HbA1c (%)","Baseline",0,7.8
"SYNTH-OBT2D-26","SYNTH-182","HBA1C","HbA1c (%)","Week 4",4,7.5
"SYNTH-OBT2D-26","SYNTH-182","HBA1C","HbA1c (%)","Week 8",8,7.3
"SYNTH-OBT2D-26","SYNTH-182","HBA1C","HbA1c (%)","Week 12",12,7.2
"SYNTH-OBT2D-26","SYNTH-182","HBA1C","HbA1c (%)","Week 16",16,7
"SYNTH-OBT2D-26","SYNTH-182","HBA1C","HbA1c (%)","Week 20",20,7
"SYNTH-OBT2D-26","SYNTH-182","HBA1C","HbA1c (%)","Week 26",26,6.9
"SYNTH-OBT2D-26","SYNTH-182","HEIGHT","Height (cm)","Baseline",0,166
"SYNTH-OBT2D-26","SYNTH-182","WEIGHT","Weight (kg)","Baseline",0,95.3
"SYNTH-OBT2D-26","SYNTH-182","WEIGHT","Weight (kg)","Week 4",4,92.4
"SYNTH-OBT2D-26","SYNTH-182","WEIGHT","Weight (kg)","Week 8",8,90.3
"SYNTH-OBT2D-26","SYNTH-182","WEIGHT","Weight (kg)","Week 12",12,89.2
"SYNTH-OBT2D-26","SYNTH-182","WEIGHT","Weight (kg)","Week 16",16,88.4
"SYNTH-OBT2D-26","SYNTH-182","WEIGHT","Weight (kg)","Week 20",20,87.5
"SYNTH-OBT2D-26","SYNTH-182","WEIGHT","Weight (kg)","Week 26",26,86.8
"SYNTH-OBT2D-26","SYNTH-183","HBA1C","HbA1c (%)","Baseline",0,7.8
"SYNTH-OBT2D-26","SYNTH-183","HBA1C","HbA1c (%)","Week 4",4,7.4
"SYNTH-OBT2D-26","SYNTH-183","HBA1C","HbA1c (%)","Week 8",8,7
"SYNTH-OBT2D-26","SYNTH-183","HBA1C","HbA1c (%)","Week 12",12,6.7
"SYNTH-OBT2D-26","SYNTH-183","HBA1C","HbA1c (%)","Week 16",16,6.7
"SYNTH-OBT2D-26","SYNTH-183","HBA1C","HbA1c (%)","Week 20",20,6.5
"SYNTH-OBT2D-26","SYNTH-183","HBA1C","HbA1c (%)","Week 26",26,6.4
"SYNTH-OBT2D-26","SYNTH-183","HEIGHT","Height (cm)","Baseline",0,161
"SYNTH-OBT2D-26","SYNTH-183","WEIGHT","Weight (kg)","Baseline",0,88.3
"SYNTH-OBT2D-26","SYNTH-183","WEIGHT","Weight (kg)","Week 4",4,84.6
"SYNTH-OBT2D-26","SYNTH-183","WEIGHT","Weight (kg)","Week 8",8,81.1
"SYNTH-OBT2D-26","SYNTH-183","WEIGHT","Weight (kg)","Week 12",12,79
"SYNTH-OBT2D-26","SYNTH-183","WEIGHT","Weight (kg)","Week 16",16,78
"SYNTH-OBT2D-26","SYNTH-183","WEIGHT","Weight (kg)","Week 20",20,76.6
"SYNTH-OBT2D-26","SYNTH-183","WEIGHT","Weight (kg)","Week 26",26,75.8
"SYNTH-OBT2D-26","SYNTH-184","HBA1C","HbA1c (%)","Baseline",0,10
"SYNTH-OBT2D-26","SYNTH-184","HBA1C","HbA1c (%)","Week 4",4,9.7
"SYNTH-OBT2D-26","SYNTH-184","HBA1C","HbA1c (%)","Week 8",8,9.4
"SYNTH-OBT2D-26","SYNTH-184","HBA1C","HbA1c (%)","Week 12",12,9.1
"SYNTH-OBT2D-26","SYNTH-184","HBA1C","HbA1c (%)","Week 16",16,8.9
"SYNTH-OBT2D-26","SYNTH-184","HBA1C","HbA1c (%)","Week 20",20,8.8
"SYNTH-OBT2D-26","SYNTH-184","HBA1C","HbA1c (%)","Week 26",26,8.8
"SYNTH-OBT2D-26","SYNTH-184","HEIGHT","Height (cm)","Baseline",0,165
"SYNTH-OBT2D-26","SYNTH-184","WEIGHT","Weight (kg)","Baseline",0,98.8
"SYNTH-OBT2D-26","SYNTH-184","WEIGHT","Weight (kg)","Week 4",4,95.8
"SYNTH-OBT2D-26","SYNTH-184","WEIGHT","Weight (kg)","Week 8",8,93.9
"SYNTH-OBT2D-26","SYNTH-184","WEIGHT","Weight (kg)","Week 12",12,92.5
"SYNTH-OBT2D-26","SYNTH-184","WEIGHT","Weight (kg)","Week 16",16,91.2
"SYNTH-OBT2D-26","SYNTH-184","WEIGHT","Weight (kg)","Week 20",20,90.7
"SYNTH-OBT2D-26","SYNTH-184","WEIGHT","Weight (kg)","Week 26",26,89.9
"SYNTH-OBT2D-26","SYNTH-185","HBA1C","HbA1c (%)","Baseline",0,7.1
"SYNTH-OBT2D-26","SYNTH-185","HBA1C","HbA1c (%)","Week 4",4,7
"SYNTH-OBT2D-26","SYNTH-185","HBA1C","HbA1c (%)","Week 8",8,6.9
"SYNTH-OBT2D-26","SYNTH-185","HBA1C","HbA1c (%)","Week 12",12,6.9
"SYNTH-OBT2D-26","SYNTH-185","HBA1C","HbA1c (%)","Week 16",16,6.8
"SYNTH-OBT2D-26","SYNTH-185","HBA1C","HbA1c (%)","Week 20",20,6.7
"SYNTH-OBT2D-26","SYNTH-185","HBA1C","HbA1c (%)","Week 26",26,6.7
"SYNTH-OBT2D-26","SYNTH-185","HEIGHT","Height (cm)","Baseline",0,169
"SYNTH-OBT2D-26","SYNTH-185","WEIGHT","Weight (kg)","Baseline",0,92.3
"SYNTH-OBT2D-26","SYNTH-185","WEIGHT","Weight (kg)","Week 4",4,91.3
"SYNTH-OBT2D-26","SYNTH-185","WEIGHT","Weight (kg)","Week 8",8,90.8
"SYNTH-OBT2D-26","SYNTH-185","WEIGHT","Weight (kg)","Week 12",12,90.5
"SYNTH-OBT2D-26","SYNTH-185","WEIGHT","Weight (kg)","Week 16",16,90.4
"SYNTH-OBT2D-26","SYNTH-185","WEIGHT","Weight (kg)","Week 20",20,90
"SYNTH-OBT2D-26","SYNTH-185","WEIGHT","Weight (kg)","Week 26",26,89.8
"SYNTH-OBT2D-26","SYNTH-186","HBA1C","HbA1c (%)","Baseline",0,8.3
"SYNTH-OBT2D-26","SYNTH-186","HBA1C","HbA1c (%)","Week 4",4,8
"SYNTH-OBT2D-26","SYNTH-186","HBA1C","HbA1c (%)","Week 8",8,7.8
"SYNTH-OBT2D-26","SYNTH-186","HBA1C","HbA1c (%)","Week 12",12,7.6
"SYNTH-OBT2D-26","SYNTH-186","HBA1C","HbA1c (%)","Week 16",16,7.5
"SYNTH-OBT2D-26","SYNTH-186","HBA1C","HbA1c (%)","Week 20",20,7.4
"SYNTH-OBT2D-26","SYNTH-186","HBA1C","HbA1c (%)","Week 26",26,7.3
"SYNTH-OBT2D-26","SYNTH-186","HEIGHT","Height (cm)","Baseline",0,168
"SYNTH-OBT2D-26","SYNTH-186","WEIGHT","Weight (kg)","Baseline",0,123.9
"SYNTH-OBT2D-26","SYNTH-186","WEIGHT","Weight (kg)","Week 4",4,121.8
"SYNTH-OBT2D-26","SYNTH-186","WEIGHT","Weight (kg)","Week 8",8,120.1
"SYNTH-OBT2D-26","SYNTH-186","WEIGHT","Weight (kg)","Week 12",12,118.8
"SYNTH-OBT2D-26","SYNTH-186","WEIGHT","Weight (kg)","Week 16",16,117.5
"SYNTH-OBT2D-26","SYNTH-186","WEIGHT","Weight (kg)","Week 20",20,116.6
"SYNTH-OBT2D-26","SYNTH-186","WEIGHT","Weight (kg)","Week 26",26,116.3
"SYNTH-OBT2D-26","SYNTH-187","HBA1C","HbA1c (%)","Baseline",0,8.1
"SYNTH-OBT2D-26","SYNTH-187","HBA1C","HbA1c (%)","Week 4",4,7.9
"SYNTH-OBT2D-26","SYNTH-187","HBA1C","HbA1c (%)","Week 8",8,7.8
"SYNTH-OBT2D-26","SYNTH-187","HBA1C","HbA1c (%)","Week 12",12,7.7
"SYNTH-OBT2D-26","SYNTH-187","HBA1C","HbA1c (%)","Week 16",16,7.6
"SYNTH-OBT2D-26","SYNTH-187","HBA1C","HbA1c (%)","Week 20",20,7.5
"SYNTH-OBT2D-26","SYNTH-187","HBA1C","HbA1c (%)","Week 26",26,7.5
"SYNTH-OBT2D-26","SYNTH-187","HEIGHT","Height (cm)","Baseline",0,185
"SYNTH-OBT2D-26","SYNTH-187","WEIGHT","Weight (kg)","Baseline",0,154.3
"SYNTH-OBT2D-26","SYNTH-187","WEIGHT","Weight (kg)","Week 4",4,150.6
"SYNTH-OBT2D-26","SYNTH-187","WEIGHT","Weight (kg)","Week 8",8,147.8
"SYNTH-OBT2D-26","SYNTH-187","WEIGHT","Weight (kg)","Week 12",12,144.9
"SYNTH-OBT2D-26","SYNTH-187","WEIGHT","Weight (kg)","Week 16",16,144
"SYNTH-OBT2D-26","SYNTH-187","WEIGHT","Weight (kg)","Week 20",20,143
"SYNTH-OBT2D-26","SYNTH-187","WEIGHT","Weight (kg)","Week 26",26,142.1
"SYNTH-OBT2D-26","SYNTH-188","HBA1C","HbA1c (%)","Baseline",0,7.5
"SYNTH-OBT2D-26","SYNTH-188","HBA1C","HbA1c (%)","Week 4",4,7.6
"SYNTH-OBT2D-26","SYNTH-188","HBA1C","HbA1c (%)","Week 8",8,7.5
"SYNTH-OBT2D-26","SYNTH-188","HBA1C","HbA1c (%)","Week 12",12,7.6
"SYNTH-OBT2D-26","SYNTH-188","HBA1C","HbA1c (%)","Week 16",16,7.8
"SYNTH-OBT2D-26","SYNTH-188","HBA1C","HbA1c (%)","Week 20",20,7.7
"SYNTH-OBT2D-26","SYNTH-188","HBA1C","HbA1c (%)","Week 26",26,7.7
"SYNTH-OBT2D-26","SYNTH-188","HEIGHT","Height (cm)","Baseline",0,168
"SYNTH-OBT2D-26","SYNTH-188","WEIGHT","Weight (kg)","Baseline",0,93.6
"SYNTH-OBT2D-26","SYNTH-188","WEIGHT","Weight (kg)","Week 4",4,93.2
"SYNTH-OBT2D-26","SYNTH-188","WEIGHT","Weight (kg)","Week 8",8,93.6
"SYNTH-OBT2D-26","SYNTH-188","WEIGHT","Weight (kg)","Week 12",12,93.2
"SYNTH-OBT2D-26","SYNTH-188","WEIGHT","Weight (kg)","Week 16",16,93.2
"SYNTH-OBT2D-26","SYNTH-188","WEIGHT","Weight (kg)","Week 20",20,93.1
"SYNTH-OBT2D-26","SYNTH-188","WEIGHT","Weight (kg)","Week 26",26,93
"SYNTH-OBT2D-26","SYNTH-189","HBA1C","HbA1c (%)","Baseline",0,9
"SYNTH-OBT2D-26","SYNTH-189","HBA1C","HbA1c (%)","Week 4",4,8.7
"SYNTH-OBT2D-26","SYNTH-189","HBA1C","HbA1c (%)","Week 8",8,8.2
"SYNTH-OBT2D-26","SYNTH-189","HBA1C","HbA1c (%)","Week 12",12,8.2
"SYNTH-OBT2D-26","SYNTH-189","HBA1C","HbA1c (%)","Week 16",16,7.8
"SYNTH-OBT2D-26","SYNTH-189","HBA1C","HbA1c (%)","Week 20",20,7.8
"SYNTH-OBT2D-26","SYNTH-189","HBA1C","HbA1c (%)","Week 26",26,7.7
"SYNTH-OBT2D-26","SYNTH-189","HEIGHT","Height (cm)","Baseline",0,170
"SYNTH-OBT2D-26","SYNTH-189","WEIGHT","Weight (kg)","Baseline",0,95.8
"SYNTH-OBT2D-26","SYNTH-189","WEIGHT","Weight (kg)","Week 4",4,91.4
"SYNTH-OBT2D-26","SYNTH-189","WEIGHT","Weight (kg)","Week 8",8,88
"SYNTH-OBT2D-26","SYNTH-189","WEIGHT","Weight (kg)","Week 12",12,86
"SYNTH-OBT2D-26","SYNTH-189","WEIGHT","Weight (kg)","Week 16",16,84.5
"SYNTH-OBT2D-26","SYNTH-189","WEIGHT","Weight (kg)","Week 20",20,83.2
"SYNTH-OBT2D-26","SYNTH-189","WEIGHT","Weight (kg)","Week 26",26,82.2
"SYNTH-OBT2D-26","SYNTH-190","HBA1C","HbA1c (%)","Baseline",0,8.6
"SYNTH-OBT2D-26","SYNTH-190","HBA1C","HbA1c (%)","Week 4",4,8.6
"SYNTH-OBT2D-26","SYNTH-190","HBA1C","HbA1c (%)","Week 8",8,8.7
"SYNTH-OBT2D-26","SYNTH-190","HBA1C","HbA1c (%)","Week 12",12,8.7
"SYNTH-OBT2D-26","SYNTH-190","HBA1C","HbA1c (%)","Week 16",16,8.9
"SYNTH-OBT2D-26","SYNTH-190","HBA1C","HbA1c (%)","Week 20",20,8.9
"SYNTH-OBT2D-26","SYNTH-190","HBA1C","HbA1c (%)","Week 26",26,8.9
"SYNTH-OBT2D-26","SYNTH-190","HEIGHT","Height (cm)","Baseline",0,160
"SYNTH-OBT2D-26","SYNTH-190","WEIGHT","Weight (kg)","Baseline",0,75.6
"SYNTH-OBT2D-26","SYNTH-190","WEIGHT","Weight (kg)","Week 4",4,76
"SYNTH-OBT2D-26","SYNTH-190","WEIGHT","Weight (kg)","Week 8",8,76.3
"SYNTH-OBT2D-26","SYNTH-190","WEIGHT","Weight (kg)","Week 12",12,76.5
"SYNTH-OBT2D-26","SYNTH-190","WEIGHT","Weight (kg)","Week 16",16,76.5
"SYNTH-OBT2D-26","SYNTH-190","WEIGHT","Weight (kg)","Week 20",20,76.8
"SYNTH-OBT2D-26","SYNTH-190","WEIGHT","Weight (kg)","Week 26",26,76.9
"SYNTH-OBT2D-26","SYNTH-191","HBA1C","HbA1c (%)","Baseline",0,7.4
"SYNTH-OBT2D-26","SYNTH-191","HBA1C","HbA1c (%)","Week 4",4,6.9
"SYNTH-OBT2D-26","SYNTH-191","HBA1C","HbA1c (%)","Week 8",8,6.7
"SYNTH-OBT2D-26","SYNTH-191","HBA1C","HbA1c (%)","Week 12",12,6.5
"SYNTH-OBT2D-26","SYNTH-191","HBA1C","HbA1c (%)","Week 16",16,6.3
"SYNTH-OBT2D-26","SYNTH-191","HBA1C","HbA1c (%)","Week 20",20,6.1
"SYNTH-OBT2D-26","SYNTH-191","HBA1C","HbA1c (%)","Week 26",26,6.1
"SYNTH-OBT2D-26","SYNTH-191","HEIGHT","Height (cm)","Baseline",0,176
"SYNTH-OBT2D-26","SYNTH-191","WEIGHT","Weight (kg)","Baseline",0,99.8
"SYNTH-OBT2D-26","SYNTH-191","WEIGHT","Weight (kg)","Week 4",4,95.8
"SYNTH-OBT2D-26","SYNTH-191","WEIGHT","Weight (kg)","Week 8",8,92.3
"SYNTH-OBT2D-26","SYNTH-191","WEIGHT","Weight (kg)","Week 12",12,90.5
"SYNTH-OBT2D-26","SYNTH-191","WEIGHT","Weight (kg)","Week 16",16,88.7
"SYNTH-OBT2D-26","SYNTH-191","WEIGHT","Weight (kg)","Week 20",20,87.4
"SYNTH-OBT2D-26","SYNTH-191","WEIGHT","Weight (kg)","Week 26",26,86.7
"SYNTH-OBT2D-26","SYNTH-192","HBA1C","HbA1c (%)","Baseline",0,8.2
"SYNTH-OBT2D-26","SYNTH-192","HBA1C","HbA1c (%)","Week 4",4,7.9
"SYNTH-OBT2D-26","SYNTH-192","HBA1C","HbA1c (%)","Week 8",8,7.7
"SYNTH-OBT2D-26","SYNTH-192","HBA1C","HbA1c (%)","Week 12",12,7.5
"SYNTH-OBT2D-26","SYNTH-192","HBA1C","HbA1c (%)","Week 16",16,7.4
"SYNTH-OBT2D-26","SYNTH-192","HBA1C","HbA1c (%)","Week 20",20,7.4
"SYNTH-OBT2D-26","SYNTH-192","HBA1C","HbA1c (%)","Week 26",26,7.3
"SYNTH-OBT2D-26","SYNTH-192","HEIGHT","Height (cm)","Baseline",0,172
"SYNTH-OBT2D-26","SYNTH-192","WEIGHT","Weight (kg)","Baseline",0,113.9
"SYNTH-OBT2D-26","SYNTH-192","WEIGHT","Weight (kg)","Week 4",4,110.8
"SYNTH-OBT2D-26","SYNTH-192","WEIGHT","Weight (kg)","Week 8",8,107.6
"SYNTH-OBT2D-26","SYNTH-192","WEIGHT","Weight (kg)","Week 12",12,106.7
"SYNTH-OBT2D-26","SYNTH-192","WEIGHT","Weight (kg)","Week 16",16,105.4
"SYNTH-OBT2D-26","SYNTH-192","WEIGHT","Weight (kg)","Week 20",20,104.9
"SYNTH-OBT2D-26","SYNTH-192","WEIGHT","Weight (kg)","Week 26",26,103.9
"SYNTH-OBT2D-26","SYNTH-193","HBA1C","HbA1c (%)","Baseline",0,8.7
"SYNTH-OBT2D-26","SYNTH-193","HBA1C","HbA1c (%)","Week 4",4,8.4
"SYNTH-OBT2D-26","SYNTH-193","HBA1C","HbA1c (%)","Week 8",8,8
"SYNTH-OBT2D-26","SYNTH-193","HBA1C","HbA1c (%)","Week 12",12,7.8
"SYNTH-OBT2D-26","SYNTH-193","HBA1C","HbA1c (%)","Week 16",16,7.7
"SYNTH-OBT2D-26","SYNTH-193","HBA1C","HbA1c (%)","Week 20",20,7.6
"SYNTH-OBT2D-26","SYNTH-193","HBA1C","HbA1c (%)","Week 26",26,7.5
"SYNTH-OBT2D-26","SYNTH-193","HEIGHT","Height (cm)","Baseline",0,177
"SYNTH-OBT2D-26","SYNTH-193","WEIGHT","Weight (kg)","Baseline",0,104.3
"SYNTH-OBT2D-26","SYNTH-193","WEIGHT","Weight (kg)","Week 4",4,100.9
"SYNTH-OBT2D-26","SYNTH-193","WEIGHT","Weight (kg)","Week 8",8,98.7
"SYNTH-OBT2D-26","SYNTH-193","WEIGHT","Weight (kg)","Week 12",12,97.1
"SYNTH-OBT2D-26","SYNTH-193","WEIGHT","Weight (kg)","Week 16",16,96.2
"SYNTH-OBT2D-26","SYNTH-193","WEIGHT","Weight (kg)","Week 20",20,94.6
"SYNTH-OBT2D-26","SYNTH-193","WEIGHT","Weight (kg)","Week 26",26,94.2
"SYNTH-OBT2D-26","SYNTH-194","HBA1C","HbA1c (%)","Baseline",0,7
"SYNTH-OBT2D-26","SYNTH-194","HBA1C","HbA1c (%)","Week 4",4,6.6
"SYNTH-OBT2D-26","SYNTH-194","HBA1C","HbA1c (%)","Week 8",8,6.3
"SYNTH-OBT2D-26","SYNTH-194","HBA1C","HbA1c (%)","Week 12",12,6
"SYNTH-OBT2D-26","SYNTH-194","HBA1C","HbA1c (%)","Week 16",16,5.9
"SYNTH-OBT2D-26","SYNTH-194","HBA1C","HbA1c (%)","Week 20",20,5.9
"SYNTH-OBT2D-26","SYNTH-194","HBA1C","HbA1c (%)","Week 26",26,5.8
"SYNTH-OBT2D-26","SYNTH-194","HEIGHT","Height (cm)","Baseline",0,175
"SYNTH-OBT2D-26","SYNTH-194","WEIGHT","Weight (kg)","Baseline",0,84.1
"SYNTH-OBT2D-26","SYNTH-194","WEIGHT","Weight (kg)","Week 4",4,80.1
"SYNTH-OBT2D-26","SYNTH-194","WEIGHT","Weight (kg)","Week 8",8,77.2
"SYNTH-OBT2D-26","SYNTH-194","WEIGHT","Weight (kg)","Week 12",12,75.3
"SYNTH-OBT2D-26","SYNTH-194","WEIGHT","Weight (kg)","Week 16",16,73.9
"SYNTH-OBT2D-26","SYNTH-194","WEIGHT","Weight (kg)","Week 20",20,73.2
"SYNTH-OBT2D-26","SYNTH-194","WEIGHT","Weight (kg)","Week 26",26,71.8
"SYNTH-OBT2D-26","SYNTH-195","HBA1C","HbA1c (%)","Baseline",0,8.6
"SYNTH-OBT2D-26","SYNTH-195","HBA1C","HbA1c (%)","Week 4",4,8.8
"SYNTH-OBT2D-26","SYNTH-195","HBA1C","HbA1c (%)","Week 8",8,8.8
"SYNTH-OBT2D-26","SYNTH-195","HBA1C","HbA1c (%)","Week 12",12,8.8
"SYNTH-OBT2D-26","SYNTH-195","HBA1C","HbA1c (%)","Week 16",16,9
"SYNTH-OBT2D-26","SYNTH-195","HBA1C","HbA1c (%)","Week 20",20,8.9
"SYNTH-OBT2D-26","SYNTH-195","HBA1C","HbA1c (%)","Week 26",26,8.9
"SYNTH-OBT2D-26","SYNTH-195","HEIGHT","Height (cm)","Baseline",0,158
"SYNTH-OBT2D-26","SYNTH-195","WEIGHT","Weight (kg)","Baseline",0,83.5
"SYNTH-OBT2D-26","SYNTH-195","WEIGHT","Weight (kg)","Week 4",4,84.6
"SYNTH-OBT2D-26","SYNTH-195","WEIGHT","Weight (kg)","Week 8",8,85
"SYNTH-OBT2D-26","SYNTH-195","WEIGHT","Weight (kg)","Week 12",12,85.5
"SYNTH-OBT2D-26","SYNTH-195","WEIGHT","Weight (kg)","Week 16",16,85.6
"SYNTH-OBT2D-26","SYNTH-195","WEIGHT","Weight (kg)","Week 20",20,86
"SYNTH-OBT2D-26","SYNTH-195","WEIGHT","Weight (kg)","Week 26",26,86.3
"SYNTH-OBT2D-26","SYNTH-196","HBA1C","HbA1c (%)","Baseline",0,9
"SYNTH-OBT2D-26","SYNTH-196","HBA1C","HbA1c (%)","Week 4",4,8.8
"SYNTH-OBT2D-26","SYNTH-196","HBA1C","HbA1c (%)","Week 8",8,8.4
"SYNTH-OBT2D-26","SYNTH-196","HBA1C","HbA1c (%)","Week 12",12,8.4
"SYNTH-OBT2D-26","SYNTH-196","HBA1C","HbA1c (%)","Week 16",16,8.2
"SYNTH-OBT2D-26","SYNTH-196","HBA1C","HbA1c (%)","Week 20",20,8.2
"SYNTH-OBT2D-26","SYNTH-196","HBA1C","HbA1c (%)","Week 26",26,8.1
"SYNTH-OBT2D-26","SYNTH-196","HEIGHT","Height (cm)","Baseline",0,161
"SYNTH-OBT2D-26","SYNTH-196","WEIGHT","Weight (kg)","Baseline",0,84.4
"SYNTH-OBT2D-26","SYNTH-196","WEIGHT","Weight (kg)","Week 4",4,82
"SYNTH-OBT2D-26","SYNTH-196","WEIGHT","Weight (kg)","Week 8",8,79.7
"SYNTH-OBT2D-26","SYNTH-196","WEIGHT","Weight (kg)","Week 12",12,79.2
"SYNTH-OBT2D-26","SYNTH-196","WEIGHT","Weight (kg)","Week 16",16,78.1
"SYNTH-OBT2D-26","SYNTH-196","WEIGHT","Weight (kg)","Week 20",20,77.7
"SYNTH-OBT2D-26","SYNTH-196","WEIGHT","Weight (kg)","Week 26",26,76.8
"SYNTH-OBT2D-26","SYNTH-197","HBA1C","HbA1c (%)","Baseline",0,9.8
"SYNTH-OBT2D-26","SYNTH-197","HBA1C","HbA1c (%)","Week 4",4,9.3
"SYNTH-OBT2D-26","SYNTH-197","HBA1C","HbA1c (%)","Week 8",8,9.1
"SYNTH-OBT2D-26","SYNTH-197","HBA1C","HbA1c (%)","Week 12",12,8.9
"SYNTH-OBT2D-26","SYNTH-197","HBA1C","HbA1c (%)","Week 16",16,8.6
"SYNTH-OBT2D-26","SYNTH-197","HBA1C","HbA1c (%)","Week 20",20,8.5
"SYNTH-OBT2D-26","SYNTH-197","HBA1C","HbA1c (%)","Week 26",26,8.5
"SYNTH-OBT2D-26","SYNTH-197","HEIGHT","Height (cm)","Baseline",0,162
"SYNTH-OBT2D-26","SYNTH-197","WEIGHT","Weight (kg)","Baseline",0,88.7
"SYNTH-OBT2D-26","SYNTH-197","WEIGHT","Weight (kg)","Week 4",4,85.3
"SYNTH-OBT2D-26","SYNTH-197","WEIGHT","Weight (kg)","Week 8",8,82.2
"SYNTH-OBT2D-26","SYNTH-197","WEIGHT","Weight (kg)","Week 12",12,80.5
"SYNTH-OBT2D-26","SYNTH-197","WEIGHT","Weight (kg)","Week 16",16,79.4
"SYNTH-OBT2D-26","SYNTH-197","WEIGHT","Weight (kg)","Week 20",20,78.1
"SYNTH-OBT2D-26","SYNTH-197","WEIGHT","Weight (kg)","Week 26",26,77.2
"SYNTH-OBT2D-26","SYNTH-198","HBA1C","HbA1c (%)","Baseline",0,8.7
"SYNTH-OBT2D-26","SYNTH-198","HBA1C","HbA1c (%)","Week 4",4,8
"SYNTH-OBT2D-26","SYNTH-198","HBA1C","HbA1c (%)","Week 8",8,7.8
"SYNTH-OBT2D-26","SYNTH-198","HBA1C","HbA1c (%)","Week 12",12,7.3
"SYNTH-OBT2D-26","SYNTH-198","HBA1C","HbA1c (%)","Week 16",16,7.1
"SYNTH-OBT2D-26","SYNTH-198","HBA1C","HbA1c (%)","Week 20",20,7
"SYNTH-OBT2D-26","SYNTH-198","HBA1C","HbA1c (%)","Week 26",26,6.9
"SYNTH-OBT2D-26","SYNTH-198","HEIGHT","Height (cm)","Baseline",0,152
